"datasetid","subject","block","trial","congruency","between","within","accuracy","rt"
51,1,1,4,1,NA,1,1,0.586
51,1,1,5,1,NA,1,1,0.639
51,1,1,6,1,NA,1,1,0.568
51,1,1,7,1,NA,1,1,0.858
51,1,1,8,1,NA,1,1,0.821
51,1,1,9,2,NA,1,1,0.993
51,1,1,10,1,NA,1,1,0.701
51,1,1,11,1,NA,1,1,0.528
51,1,1,12,1,NA,1,1,0.779
51,1,1,13,1,NA,1,1,0.58
51,1,1,14,2,NA,1,1,0.932
51,1,1,15,2,NA,1,1,1.142
51,1,1,16,2,NA,1,0,1.273
51,1,1,17,2,NA,1,1,0.849
51,1,1,18,1,NA,1,0,1.022
51,1,1,19,1,NA,1,1,0.624
51,1,1,20,2,NA,1,1,0.936
51,1,1,21,2,NA,1,1,0.85
51,1,1,22,2,NA,1,1,0.914
51,1,1,23,1,NA,1,1,0.71
51,1,1,24,1,NA,1,0,1.158
51,1,1,25,1,NA,1,1,0.623
51,1,1,26,2,NA,1,1,0.831
51,1,1,27,2,NA,1,1,0.74
51,1,1,28,1,NA,1,1,0.945
51,1,1,29,2,NA,1,1,0.753
51,1,1,30,1,NA,1,1,0.692
51,1,1,31,1,NA,1,1,0.755
51,1,1,32,2,NA,1,1,0.759
51,1,1,33,1,NA,1,1,0.638
51,1,1,35,2,NA,1,1,0.925
51,1,1,36,2,NA,1,1,0.838
51,1,1,37,2,NA,1,1,0.867
51,1,1,39,1,NA,1,1,0.938
51,1,1,40,2,NA,1,1,0.932
51,1,1,41,2,NA,1,1,1.279
51,1,1,43,1,NA,1,1,0.753
51,1,1,44,1,NA,1,1,0.571
51,1,1,45,2,NA,1,1,0.734
51,1,1,46,1,NA,1,1,0.625
51,1,1,47,1,NA,1,1,0.691
51,1,1,48,1,NA,1,1,0.472
51,1,1,49,1,NA,1,1,0.595
51,1,1,50,1,NA,1,1,0.598
51,1,1,51,2,NA,1,1,0.693
51,1,1,52,2,NA,1,1,0.709
51,1,1,53,1,NA,1,1,0.584
51,1,1,54,1,NA,1,1,0.839
51,1,1,55,2,NA,1,0,0.702
51,1,1,56,2,NA,1,1,0.538
51,1,1,57,2,NA,1,1,0.55
51,1,1,58,2,NA,1,0,0.641
51,1,1,59,2,NA,1,1,0.627
51,1,1,60,1,NA,1,1,0.674
51,1,1,61,2,NA,1,1,0.78
51,1,1,62,1,NA,1,1,0.622
51,1,1,63,1,NA,1,1,0.546
51,1,1,64,2,NA,1,1,0.674
51,1,1,65,2,NA,1,1,0.771
51,1,1,66,2,NA,1,1,0.851
51,1,1,67,2,NA,1,1,1.059
51,1,1,68,2,NA,1,1,0.951
51,1,1,69,2,NA,1,0,0.926
51,1,1,70,2,NA,1,1,1.03
51,1,1,71,1,NA,1,1,0.666
51,1,1,72,2,NA,1,1,0.522
51,1,1,73,1,NA,1,1,0.528
51,1,1,74,1,NA,1,1,0.546
51,1,1,75,2,NA,1,1,0.771
51,1,1,76,1,NA,1,1,0.978
51,1,1,77,1,NA,1,1,0.839
51,1,1,78,1,NA,1,1,0.509
51,1,1,79,2,NA,1,1,0.573
51,1,1,80,2,NA,1,0,0.759
51,1,1,81,2,NA,1,1,0.698
51,1,1,82,2,NA,1,1,0.386
51,1,1,83,1,NA,1,1,0.52
51,1,1,84,2,NA,1,0,0.568
51,1,1,85,2,NA,1,1,0.529
51,1,1,86,2,NA,1,0,0.754
51,1,1,87,2,NA,1,1,0.586
51,1,1,88,2,NA,1,1,1.113
51,1,1,89,2,NA,1,1,1.364
51,1,1,90,1,NA,1,1,0.877
51,1,1,92,1,NA,1,1,1.305
51,1,1,93,1,NA,1,1,0.697
51,1,1,95,1,NA,1,1,0.763
51,1,1,96,2,NA,1,1,0.996
51,2,1,4,2,NA,1,1,0.682
51,2,1,5,2,NA,1,1,0.821
51,2,1,6,1,NA,1,1,0.552
51,2,1,7,2,NA,1,1,0.532
51,2,1,8,2,NA,1,1,0.942
51,2,1,9,1,NA,1,1,0.772
51,2,1,10,1,NA,1,1,0.612
51,2,1,11,2,NA,1,1,1.011
51,2,1,12,1,NA,1,1,1.434
51,2,1,13,1,NA,1,1,0.591
51,2,1,14,2,NA,1,1,0.942
51,2,1,15,1,NA,1,1,0.598
51,2,1,16,1,NA,1,1,0.56
51,2,1,17,1,NA,1,1,0.942
51,2,1,18,1,NA,1,1,0.592
51,2,1,19,1,NA,1,1,0.422
51,2,1,20,1,NA,1,1,0.46
51,2,1,21,1,NA,1,1,0.51
51,2,1,22,1,NA,1,1,1.021
51,2,1,23,2,NA,1,1,0.602
51,2,1,24,2,NA,1,1,1.041
51,2,1,25,2,NA,1,1,0.71
51,2,1,26,2,NA,1,1,0.916
51,2,1,27,2,NA,1,1,0.732
51,2,1,28,1,NA,1,1,0.631
51,2,1,29,1,NA,1,1,0.721
51,2,1,30,2,NA,1,1,0.779
51,2,1,31,2,NA,1,1,0.962
51,2,1,32,1,NA,1,1,0.68
51,2,1,33,2,NA,1,1,0.781
51,2,1,34,1,NA,1,1,0.613
51,2,1,36,1,NA,1,1,0.722
51,2,1,37,1,NA,1,1,0.582
51,2,1,38,1,NA,1,1,0.459
51,2,1,39,2,NA,1,1,0.882
51,2,1,40,2,NA,1,1,0.585
51,2,1,41,1,NA,1,1,0.562
51,2,1,42,2,NA,1,1,0.953
51,2,1,43,1,NA,1,1,0.552
51,2,1,44,1,NA,1,1,0.471
51,2,1,45,1,NA,1,0,0.632
51,2,1,46,1,NA,1,1,0.78
51,2,1,47,2,NA,1,1,0.923
51,2,1,48,2,NA,1,1,0.931
51,2,1,49,2,NA,1,1,0.502
51,2,1,50,1,NA,1,1,0.834
51,2,1,51,1,NA,1,1,0.942
51,2,1,52,1,NA,1,1,0.66
51,2,1,53,2,NA,1,1,0.781
51,2,1,54,2,NA,1,1,1.032
51,2,1,55,2,NA,1,1,0.792
51,2,1,56,1,NA,1,1,0.66
51,2,1,57,2,NA,1,1,0.94
51,2,1,58,2,NA,1,1,0.851
51,2,1,59,1,NA,1,1,0.654
51,2,1,60,1,NA,1,1,0.612
51,2,1,61,2,NA,1,1,0.74
51,2,1,62,2,NA,1,1,0.66
51,2,1,63,2,NA,1,1,0.991
51,2,1,64,2,NA,1,1,0.921
51,2,1,65,2,NA,1,1,0.732
51,2,1,66,1,NA,1,1,0.642
51,2,1,67,1,NA,1,1,0.625
51,2,1,68,1,NA,1,1,0.643
51,2,1,69,2,NA,1,1,0.592
51,2,1,70,1,NA,1,1,0.662
51,2,1,71,2,NA,1,1,0.823
51,2,1,72,2,NA,1,1,0.66
51,2,1,73,2,NA,1,1,0.831
51,2,1,74,2,NA,1,1,0.702
51,2,1,75,1,NA,1,1,0.712
51,2,1,76,2,NA,1,1,0.672
51,2,1,77,2,NA,1,1,0.706
51,2,1,78,1,NA,1,1,0.613
51,2,1,79,2,NA,1,1,0.744
51,2,1,80,2,NA,1,1,0.822
51,2,1,81,1,NA,1,1,1.034
51,2,1,82,2,NA,1,1,0.78
51,2,1,83,2,NA,1,1,0.72
51,2,1,84,1,NA,1,1,0.786
51,2,1,85,1,NA,1,1,0.572
51,2,1,86,2,NA,1,1,0.58
51,2,1,87,2,NA,1,1,0.723
51,2,1,88,2,NA,1,1,0.872
51,2,1,89,2,NA,1,1,0.698
51,2,1,90,1,NA,1,1,0.63
51,2,1,91,1,NA,1,1,0.613
51,2,1,92,1,NA,1,1,0.673
51,2,1,93,2,NA,1,1,0.782
51,2,1,94,1,NA,1,1,0.742
51,2,1,95,1,NA,1,1,0.584
51,2,1,96,1,NA,1,1,0.641
51,3,1,4,1,NA,1,1,0.42
51,3,1,5,2,NA,1,1,0.62
51,3,1,6,1,NA,1,1,0.507
51,3,1,7,2,NA,1,1,0.617
51,3,1,8,2,NA,1,1,0.662
51,3,1,9,1,NA,1,1,1.491
51,3,1,10,2,NA,1,1,0.714
51,3,1,11,2,NA,1,1,1.396
51,3,1,12,1,NA,1,1,0.637
51,3,1,13,1,NA,1,1,0.475
51,3,1,14,1,NA,1,1,0.383
51,3,1,15,1,NA,1,1,0.854
51,3,1,16,2,NA,1,1,0.598
51,3,1,17,2,NA,1,1,0.506
51,3,1,18,1,NA,1,1,0.485
51,3,1,19,2,NA,1,1,0.552
51,3,1,20,1,NA,1,1,0.651
51,3,1,21,2,NA,1,1,0.645
51,3,1,22,1,NA,1,1,0.544
51,3,1,23,2,NA,1,1,0.811
51,3,1,24,2,NA,1,1,0.862
51,3,1,25,1,NA,1,1,0.486
51,3,1,26,1,NA,1,1,0.503
51,3,1,27,2,NA,1,1,0.538
51,3,1,28,1,NA,1,1,0.506
51,3,1,29,2,NA,1,1,0.57
51,3,1,30,1,NA,1,1,0.47
51,3,1,31,1,NA,1,1,0.593
51,3,1,32,2,NA,1,1,0.737
51,3,1,33,1,NA,1,1,0.591
51,3,1,34,1,NA,1,1,0.385
51,3,1,35,1,NA,1,1,0.645
51,3,1,36,2,NA,1,1,0.737
51,3,1,37,2,NA,1,1,0.735
51,3,1,38,2,NA,1,1,0.525
51,3,1,39,1,NA,1,1,0.439
51,3,1,40,2,NA,1,1,0.916
51,3,1,41,1,NA,1,1,0.499
51,3,1,42,1,NA,1,1,0.619
51,3,1,43,2,NA,1,1,0.79
51,3,1,44,1,NA,1,1,0.8
51,3,1,45,1,NA,1,1,0.45
51,3,1,46,1,NA,1,1,0.618
51,3,1,47,2,NA,1,0,0.553
51,3,1,48,2,NA,1,1,0.609
51,3,1,49,1,NA,1,1,1.093
51,3,1,50,2,NA,1,1,0.671
51,3,1,51,2,NA,1,1,0.494
51,3,1,52,2,NA,1,0,0.433
51,3,1,53,2,NA,1,1,0.71
51,3,1,54,1,NA,1,1,0.611
51,3,1,55,1,NA,1,1,0.421
51,3,1,56,2,NA,1,1,0.661
51,3,1,57,1,NA,1,1,0.553
51,3,1,58,2,NA,1,1,0.579
51,3,1,59,2,NA,1,1,0.618
51,3,1,60,2,NA,1,1,0.704
51,3,1,61,1,NA,1,1,0.421
51,3,1,62,2,NA,1,1,0.689
51,3,1,63,1,NA,1,1,0.409
51,3,1,64,2,NA,1,1,0.505
51,3,1,65,1,NA,1,1,0.535
51,3,1,66,1,NA,1,1,0.497
51,3,1,67,2,NA,1,1,0.625
51,3,1,68,1,NA,1,1,0.499
51,3,1,69,1,NA,1,1,0.487
51,3,1,70,2,NA,1,1,0.387
51,3,1,71,1,NA,1,1,0.36
51,3,1,72,2,NA,1,1,0.654
51,3,1,73,2,NA,1,1,0.318
51,3,1,74,2,NA,1,1,0.941
51,3,1,75,2,NA,1,1,0.554
51,3,1,76,2,NA,1,1,0.569
51,3,1,77,2,NA,1,1,0.723
51,3,1,78,2,NA,1,1,0.76
51,3,1,79,1,NA,1,1,0.566
51,3,1,80,1,NA,1,1,0.503
51,3,1,81,2,NA,1,1,0.462
51,3,1,82,1,NA,1,1,0.682
51,3,1,83,2,NA,1,1,0.6
51,3,1,84,1,NA,1,1,0.555
51,3,1,85,1,NA,1,1,0.707
51,3,1,86,1,NA,1,1,0.576
51,3,1,87,2,NA,1,1,0.824
51,3,1,88,1,NA,1,1,0.514
51,3,1,89,1,NA,1,1,0.519
51,3,1,90,2,NA,1,1,0.406
51,3,1,91,1,NA,1,1,0.515
51,3,1,92,2,NA,1,1,1.148
51,3,1,93,2,NA,1,1,0.795
51,3,1,94,1,NA,1,1,0.997
51,3,1,95,1,NA,1,1,0.566
51,3,1,96,2,NA,1,1,0.643
51,4,1,4,1,NA,1,1,0.636
51,4,1,5,2,NA,1,1,0.887
51,4,1,6,2,NA,1,1,0.843
51,4,1,7,2,NA,1,1,0.851
51,4,1,8,1,NA,1,1,0.765
51,4,1,9,2,NA,1,1,1.027
51,4,1,10,2,NA,1,1,0.731
51,4,1,11,1,NA,1,1,0.892
51,4,1,12,2,NA,1,1,0.624
51,4,1,13,1,NA,1,1,0.736
51,4,1,14,1,NA,1,1,0.466
51,4,1,15,2,NA,1,1,0.99
51,4,1,16,2,NA,1,1,0.889
51,4,1,17,2,NA,1,1,0.73
51,4,1,18,1,NA,1,1,0.758
51,4,1,19,2,NA,1,1,0.671
51,4,1,20,2,NA,1,1,0.695
51,4,1,21,1,NA,1,1,0.626
51,4,1,22,1,NA,1,1,0.685
51,4,1,23,1,NA,1,1,0.625
51,4,1,24,1,NA,1,1,0.661
51,4,1,25,1,NA,1,1,0.676
51,4,1,26,2,NA,1,1,0.777
51,4,1,27,1,NA,1,1,0.672
51,4,1,28,2,NA,1,1,0.651
51,4,1,29,2,NA,1,1,0.638
51,4,1,30,1,NA,1,1,0.615
51,4,1,31,2,NA,1,1,0.8
51,4,1,32,2,NA,1,1,0.726
51,4,1,33,2,NA,1,1,0.756
51,4,1,34,2,NA,1,1,0.775
51,4,1,35,2,NA,1,1,0.787
51,4,1,36,1,NA,1,1,0.814
51,4,1,37,2,NA,1,1,0.858
51,4,1,38,2,NA,1,1,0.615
51,4,1,39,2,NA,1,1,0.762
51,4,1,40,1,NA,1,1,0.787
51,4,1,41,1,NA,1,1,0.631
51,4,1,42,2,NA,1,1,0.818
51,4,1,43,2,NA,1,1,0.919
51,4,1,44,2,NA,1,1,0.812
51,4,1,45,2,NA,1,1,0.655
51,4,1,46,2,NA,1,1,0.756
51,4,1,47,1,NA,1,1,0.685
51,4,1,48,2,NA,1,1,0.828
51,4,1,49,2,NA,1,1,0.818
51,4,1,50,1,NA,1,1,0.82
51,4,1,51,2,NA,1,1,0.746
51,4,1,52,1,NA,1,1,0.82
51,4,1,53,1,NA,1,1,0.634
51,4,1,54,2,NA,1,1,0.752
51,4,1,55,1,NA,1,1,0.756
51,4,1,56,1,NA,1,1,1.072
51,4,1,57,2,NA,1,1,0.686
51,4,1,58,1,NA,1,1,0.967
51,4,1,59,1,NA,1,1,0.676
51,4,1,60,1,NA,1,1,0.717
51,4,1,61,2,NA,1,1,0.943
51,4,1,62,2,NA,1,1,0.815
51,4,1,63,1,NA,1,1,0.679
51,4,1,64,1,NA,1,1,0.665
51,4,1,65,1,NA,1,1,0.59
51,4,1,66,1,NA,1,1,0.761
51,4,1,67,1,NA,1,1,0.616
51,4,1,68,2,NA,1,1,0.738
51,4,1,69,1,NA,1,1,0.662
51,4,1,70,2,NA,1,1,0.766
51,4,1,71,2,NA,1,1,0.797
51,4,1,72,2,NA,1,1,0.764
51,4,1,73,1,NA,1,1,0.966
51,4,1,74,1,NA,1,1,0.774
51,4,1,75,1,NA,1,1,0.655
51,4,1,76,2,NA,1,1,1.051
51,4,1,77,1,NA,1,1,0.655
51,4,1,78,2,NA,1,1,0.932
51,4,1,79,1,NA,1,1,0.854
51,4,1,80,1,NA,1,1,0.61
51,4,1,81,2,NA,1,1,1.19
51,4,1,82,1,NA,1,1,0.673
51,4,1,83,2,NA,1,1,0.777
51,4,1,84,1,NA,1,1,0.721
51,4,1,85,1,NA,1,1,0.688
51,4,1,86,1,NA,1,1,0.619
51,4,1,87,1,NA,1,1,0.815
51,4,1,88,2,NA,1,1,0.553
51,4,1,89,1,NA,1,1,0.72
51,4,1,90,2,NA,1,1,0.729
51,4,1,91,2,NA,1,1,0.983
51,4,1,92,1,NA,1,1,0.861
51,4,1,93,2,NA,1,1,1.014
51,4,1,94,1,NA,1,1,0.6
51,4,1,95,2,NA,1,1,0.673
51,4,1,96,1,NA,1,1,0.702
51,5,1,4,1,NA,1,1,0.633
51,5,1,5,1,NA,1,1,0.503
51,5,1,6,1,NA,1,1,0.63
51,5,1,7,1,NA,1,1,0.507
51,5,1,8,1,NA,1,1,0.619
51,5,1,9,1,NA,1,1,0.585
51,5,1,10,2,NA,1,1,0.639
51,5,1,11,1,NA,1,1,0.73
51,5,1,12,1,NA,1,1,0.537
51,5,1,13,1,NA,1,1,0.508
51,5,1,14,1,NA,1,1,0.491
51,5,1,15,2,NA,1,1,0.702
51,5,1,16,2,NA,1,1,0.566
51,5,1,17,1,NA,1,1,0.535
51,5,1,18,1,NA,1,1,0.505
51,5,1,19,2,NA,1,1,0.508
51,5,1,20,1,NA,1,1,0.585
51,5,1,21,2,NA,1,1,0.665
51,5,1,22,1,NA,1,1,0.495
51,5,1,23,2,NA,1,1,0.395
51,5,1,24,2,NA,1,1,0.852
51,5,1,25,2,NA,1,1,0.635
51,5,1,26,2,NA,1,1,0.687
51,5,1,27,2,NA,1,1,0.362
51,5,1,28,1,NA,1,1,0.553
51,5,1,29,1,NA,1,1,0.727
51,5,1,30,1,NA,1,1,0.636
51,5,1,31,2,NA,1,1,0.478
51,5,1,32,2,NA,1,1,0.433
51,5,1,33,1,NA,1,1,0.617
51,5,1,34,2,NA,1,1,0.619
51,5,1,35,1,NA,1,1,0.466
51,5,1,36,1,NA,1,1,0.494
51,5,1,37,1,NA,1,1,0.468
51,5,1,38,1,NA,1,1,0.484
51,5,1,39,1,NA,1,1,0.747
51,5,1,40,2,NA,1,1,0.473
51,5,1,41,2,NA,1,1,0.619
51,5,1,42,1,NA,1,1,0.501
51,5,1,43,1,NA,1,1,0.406
51,5,1,44,2,NA,1,1,0.465
51,5,1,45,2,NA,1,1,0.523
51,5,1,46,2,NA,1,1,0.823
51,5,1,47,2,NA,1,1,0.59
51,5,1,48,1,NA,1,1,0.509
51,5,1,49,2,NA,1,1,0.625
51,5,1,50,1,NA,1,1,0.455
51,5,1,51,2,NA,1,1,0.458
51,5,1,52,1,NA,1,1,0.53
51,5,1,53,1,NA,1,1,0.559
51,5,1,54,2,NA,1,1,0.866
51,5,1,55,2,NA,1,1,0.483
51,5,1,56,1,NA,1,1,0.572
51,5,1,57,1,NA,1,1,0.549
51,5,1,58,1,NA,1,1,0.656
51,5,1,59,2,NA,1,1,0.696
51,5,1,60,2,NA,1,1,0.56
51,5,1,61,2,NA,1,1,0.47
51,5,1,62,1,NA,1,1,0.505
51,5,1,63,1,NA,1,1,0.606
51,5,1,64,2,NA,1,1,0.582
51,5,1,65,2,NA,1,1,0.676
51,5,1,66,2,NA,1,1,0.568
51,5,1,67,2,NA,1,1,0.642
51,5,1,68,2,NA,1,1,0.676
51,5,1,69,1,NA,1,1,0.592
51,5,1,70,2,NA,1,1,0.669
51,5,1,71,2,NA,1,1,0.638
51,5,1,72,2,NA,1,1,0.614
51,5,1,73,2,NA,1,1,0.703
51,5,1,74,1,NA,1,1,0.437
51,5,1,75,1,NA,1,1,0.535
51,5,1,76,2,NA,1,1,0.635
51,5,1,77,2,NA,1,1,0.494
51,5,1,78,2,NA,1,1,0.52
51,5,1,79,1,NA,1,1,0.576
51,5,1,80,2,NA,1,1,0.576
51,5,1,81,2,NA,1,1,0.736
51,5,1,82,2,NA,1,1,0.58
51,5,1,83,2,NA,1,1,0.559
51,5,1,84,1,NA,1,1,0.509
51,5,1,85,2,NA,1,1,0.678
51,5,1,86,1,NA,1,1,0.596
51,5,1,87,1,NA,1,1,0.522
51,5,1,88,1,NA,1,1,0.587
51,5,1,89,2,NA,1,1,0.549
51,5,1,90,1,NA,1,1,0.551
51,5,1,91,1,NA,1,1,0.602
51,5,1,92,2,NA,1,1,0.63
51,5,1,93,1,NA,1,1,0.618
51,5,1,94,1,NA,1,1,0.618
51,5,1,95,1,NA,1,1,0.496
51,5,1,96,2,NA,1,1,0.572
51,6,1,4,2,NA,1,1,0.732
51,6,1,5,2,NA,1,1,0.699
51,6,1,6,2,NA,1,0,0.645
51,6,1,7,1,NA,1,1,0.828
51,6,1,8,2,NA,1,1,0.797
51,6,1,9,2,NA,1,1,0.63
51,6,1,10,2,NA,1,1,0.946
51,6,1,11,2,NA,1,1,0.853
51,6,1,12,1,NA,1,1,0.985
51,6,1,13,2,NA,1,1,0.627
51,6,1,14,2,NA,1,1,0.642
51,6,1,15,2,NA,1,1,0.688
51,6,1,16,2,NA,1,1,0.81
51,6,1,17,1,NA,1,1,1.134
51,6,1,19,1,NA,1,1,0.965
51,6,1,20,2,NA,1,1,0.984
51,6,1,22,1,NA,1,1,0.496
51,6,1,23,2,NA,1,1,0.636
51,6,1,24,1,NA,1,1,0.828
51,6,1,25,2,NA,1,1,0.813
51,6,1,26,1,NA,1,1,0.647
51,6,1,27,2,NA,1,1,0.881
51,6,1,28,1,NA,1,1,0.585
51,6,1,29,2,NA,1,1,0.775
51,6,1,30,2,NA,1,1,0.65
51,6,1,31,2,NA,1,1,0.894
51,6,1,32,2,NA,1,1,0.595
51,6,1,33,1,NA,1,1,0.652
51,6,1,34,2,NA,1,1,0.63
51,6,1,35,1,NA,1,1,0.542
51,6,1,36,1,NA,1,1,0.6
51,6,1,37,2,NA,1,0,0.869
51,6,1,38,2,NA,1,1,0.911
51,6,1,39,1,NA,1,1,1.249
51,6,1,40,2,NA,1,1,0.653
51,6,1,41,1,NA,1,1,0.453
51,6,1,42,1,NA,1,1,0.451
51,6,1,43,1,NA,1,0,0.927
51,6,1,44,2,NA,1,1,0.929
51,6,1,45,1,NA,1,1,0.676
51,6,1,46,1,NA,1,1,0.898
51,6,1,47,1,NA,1,1,0.549
51,6,1,48,2,NA,1,1,0.932
51,6,1,49,1,NA,1,1,0.711
51,6,1,50,2,NA,1,1,0.645
51,6,1,51,1,NA,1,1,0.88
51,6,1,52,2,NA,1,1,0.973
51,6,1,53,1,NA,1,1,0.816
51,6,1,54,2,NA,1,1,0.928
51,6,1,55,2,NA,1,1,0.68
51,6,1,56,2,NA,1,1,0.65
51,6,1,57,2,NA,1,1,0.988
51,6,1,58,2,NA,1,1,0.815
51,6,1,59,2,NA,1,1,0.84
51,6,1,60,2,NA,1,1,0.701
51,6,1,61,1,NA,1,1,0.68
51,6,1,62,1,NA,1,1,0.787
51,6,1,63,2,NA,1,1,1.051
51,6,1,64,1,NA,1,1,0.494
51,6,1,65,1,NA,1,1,0.519
51,6,1,66,2,NA,1,1,1.314
51,6,1,67,2,NA,1,1,1.126
51,6,1,68,1,NA,1,1,0.658
51,6,1,69,1,NA,1,1,0.553
51,6,1,70,2,NA,1,1,0.894
51,6,1,71,1,NA,1,1,0.661
51,6,1,72,1,NA,1,1,0.565
51,6,1,73,2,NA,1,1,1.343
51,6,1,74,2,NA,1,1,1.245
51,6,1,75,1,NA,1,1,0.379
51,6,1,76,1,NA,1,1,0.518
51,6,1,77,1,NA,1,1,0.719
51,6,1,78,1,NA,1,1,0.833
51,6,1,79,1,NA,1,1,0.726
51,6,1,80,1,NA,1,1,0.709
51,6,1,81,1,NA,1,1,0.753
51,6,1,82,2,NA,1,1,1.107
51,6,1,83,1,NA,1,1,0.785
51,6,1,84,1,NA,1,1,1.342
51,6,1,85,1,NA,1,1,0.817
51,6,1,86,2,NA,1,1,1.082
51,6,1,87,2,NA,1,1,1.076
51,6,1,89,1,NA,1,1,0.364
51,6,1,90,1,NA,1,1,0.481
51,6,1,91,2,NA,1,1,0.833
51,6,1,92,1,NA,1,1,0.652
51,6,1,93,1,NA,1,1,0.606
51,6,1,94,1,NA,1,1,0.724
51,6,1,95,1,NA,1,1,0.695
51,6,1,96,1,NA,1,1,0.828
51,7,1,4,2,NA,1,1,1.093
51,7,1,5,1,NA,1,1,1.093
51,7,1,6,2,NA,1,1,0.99
51,7,1,7,2,NA,1,1,1.372
51,7,1,8,1,NA,1,1,1.328
51,7,1,9,1,NA,1,1,1.044
51,7,1,10,2,NA,1,1,0.882
51,7,1,11,2,NA,1,1,0.896
51,7,1,12,2,NA,1,1,0.912
51,7,1,13,2,NA,1,1,1.29
51,7,1,15,1,NA,1,1,0.699
51,7,1,16,1,NA,1,1,0.827
51,7,1,17,2,NA,1,1,1.025
51,7,1,18,1,NA,1,1,0.996
51,7,1,19,2,NA,1,1,0.991
51,7,1,20,1,NA,1,1,0.802
51,7,1,21,1,NA,1,1,0.706
51,7,1,23,2,NA,1,1,0.821
51,7,1,24,1,NA,1,1,0.922
51,7,1,25,1,NA,1,1,1.179
51,7,1,26,1,NA,1,1,0.895
51,7,1,27,1,NA,1,1,1.239
51,7,1,28,2,NA,1,1,0.637
51,7,1,29,2,NA,1,1,0.883
51,7,1,30,1,NA,1,1,0.916
51,7,1,31,2,NA,1,1,0.86
51,7,1,32,1,NA,1,1,1.104
51,7,1,33,1,NA,1,1,1.015
51,7,1,34,1,NA,1,1,1.178
51,7,1,35,2,NA,1,1,1.004
51,7,1,37,1,NA,1,1,0.786
51,7,1,38,2,NA,1,0,1.121
51,7,1,40,2,NA,1,1,0.586
51,7,1,41,1,NA,1,1,0.851
51,7,1,42,2,NA,1,1,0.825
51,7,1,43,1,NA,1,1,0.749
51,7,1,44,2,NA,1,1,0.975
51,7,1,46,1,NA,1,1,0.611
51,7,1,47,1,NA,1,1,1.219
51,7,1,48,2,NA,1,1,1.124
51,7,1,49,1,NA,1,1,0.75
51,7,1,50,1,NA,1,1,0.962
51,7,1,51,1,NA,1,0,1.065
51,7,1,52,2,NA,1,1,0.864
51,7,1,53,2,NA,1,1,1.225
51,7,1,54,2,NA,1,0,1.354
51,7,1,55,1,NA,1,1,0.957
51,7,1,56,1,NA,1,1,0.708
51,7,1,57,1,NA,1,1,0.746
51,7,1,58,2,NA,1,0,0.842
51,7,1,59,1,NA,1,1,0.704
51,7,1,60,1,NA,1,1,0.79
51,7,1,61,2,NA,1,1,0.83
51,7,1,62,2,NA,1,1,0.989
51,7,1,63,1,NA,1,1,0.861
51,7,1,64,2,NA,1,1,1.027
51,7,1,65,1,NA,1,1,0.878
51,7,1,66,2,NA,1,1,0.932
51,7,1,67,1,NA,1,0,0.956
51,7,1,68,2,NA,1,1,1.278
51,7,1,70,1,NA,1,1,0.999
51,7,1,71,1,NA,1,1,0.879
51,7,1,72,2,NA,1,1,1.031
51,7,1,73,2,NA,1,1,1.339
51,7,1,74,2,NA,1,1,1.09
51,7,1,75,1,NA,1,1,1.418
51,7,1,76,2,NA,1,1,1.042
51,7,1,77,1,NA,1,1,1.018
51,7,1,78,2,NA,1,1,1.077
51,7,1,79,1,NA,1,1,1.053
51,7,1,80,2,NA,1,1,0.847
51,7,1,81,1,NA,1,1,0.805
51,7,1,82,2,NA,1,0,1.21
51,7,1,83,1,NA,1,1,1.257
51,7,1,84,2,NA,1,1,0.831
51,7,1,85,1,NA,1,1,1.12
51,7,1,86,2,NA,1,1,1.249
51,7,1,88,1,NA,1,1,1.182
51,7,1,89,1,NA,1,1,0.937
51,7,1,90,1,NA,1,1,0.873
51,7,1,91,1,NA,1,1,1.147
51,7,1,92,2,NA,1,1,1.281
51,7,1,93,1,NA,1,1,0.884
51,7,1,94,2,NA,1,1,1.265
51,7,1,95,2,NA,1,1,1.047
51,7,1,96,2,NA,1,1,0.989
51,8,1,4,1,NA,1,1,0.706
51,8,1,5,1,NA,1,1,0.599
51,8,1,7,2,NA,1,1,0.51
51,8,1,8,2,NA,1,1,0.924
51,8,1,9,1,NA,1,1,0.745
51,8,1,10,1,NA,1,1,0.576
51,8,1,11,1,NA,1,1,0.584
51,8,1,12,2,NA,1,1,0.593
51,8,1,13,2,NA,1,0,0.766
51,8,1,14,2,NA,1,1,0.763
51,8,1,15,1,NA,1,1,0.439
51,8,1,16,2,NA,1,1,0.63
51,8,1,17,2,NA,1,1,0.809
51,8,1,18,2,NA,1,1,0.766
51,8,1,19,2,NA,1,0,0.691
51,8,1,20,1,NA,1,1,0.817
51,8,1,21,1,NA,1,1,0.438
51,8,1,22,2,NA,1,1,1.038
51,8,1,23,1,NA,1,1,0.772
51,8,1,24,2,NA,1,1,1.192
51,8,1,25,1,NA,1,1,0.866
51,8,1,26,2,NA,1,1,0.776
51,8,1,27,1,NA,1,1,0.623
51,8,1,28,1,NA,1,1,0.444
51,8,1,29,2,NA,1,1,0.99
51,8,1,30,1,NA,1,1,0.628
51,8,1,31,2,NA,1,0,0.779
51,8,1,32,2,NA,1,0,0.796
51,8,1,33,1,NA,1,1,0.932
51,8,1,34,1,NA,1,1,0.377
51,8,1,35,1,NA,1,1,0.935
51,8,1,36,1,NA,1,1,0.572
51,8,1,37,2,NA,1,1,0.801
51,8,1,38,1,NA,1,1,0.883
51,8,1,40,1,NA,1,1,0.387
51,8,1,41,2,NA,1,0,1.386
51,8,1,42,2,NA,1,1,0.742
51,8,1,43,1,NA,1,1,0.499
51,8,1,44,2,NA,1,1,0.535
51,8,1,45,2,NA,1,0,0.875
51,8,1,46,1,NA,1,1,0.522
51,8,1,47,2,NA,1,1,0.536
51,8,1,48,2,NA,1,1,0.65
51,8,1,49,1,NA,1,0,0.696
51,8,1,50,2,NA,1,1,0.816
51,8,1,51,1,NA,1,1,0.621
51,8,1,52,2,NA,1,1,0.659
51,8,1,53,1,NA,1,1,0.761
51,8,1,54,2,NA,1,1,0.728
51,8,1,55,1,NA,1,1,0.773
51,8,1,56,1,NA,1,1,0.784
51,8,1,57,2,NA,1,1,0.968
51,8,1,58,1,NA,1,1,0.604
51,8,1,59,2,NA,1,1,0.987
51,8,1,60,1,NA,1,1,0.528
51,8,1,61,1,NA,1,1,0.455
51,8,1,62,2,NA,1,1,0.901
51,8,1,63,2,NA,1,0,0.747
51,8,1,64,1,NA,1,1,0.609
51,8,1,65,1,NA,1,1,0.501
51,8,1,66,2,NA,1,1,0.783
51,8,1,67,1,NA,1,1,0.693
51,8,1,68,2,NA,1,1,0.811
51,8,1,69,1,NA,1,1,0.567
51,8,1,70,1,NA,1,1,0.908
51,8,1,71,2,NA,1,1,0.907
51,8,1,72,2,NA,1,1,0.754
51,8,1,73,2,NA,1,1,0.358
51,8,1,74,1,NA,1,1,0.912
51,8,1,75,2,NA,1,1,0.788
51,8,1,76,1,NA,1,1,0.6
51,8,1,77,2,NA,1,1,0.59
51,8,1,78,2,NA,1,1,0.804
51,8,1,79,2,NA,1,1,0.649
51,8,1,80,2,NA,1,1,0.728
51,8,1,81,1,NA,1,1,0.581
51,8,1,82,1,NA,1,1,0.595
51,8,1,83,2,NA,1,0,1.038
51,8,1,84,1,NA,1,1,0.573
51,8,1,85,1,NA,1,1,0.532
51,8,1,86,1,NA,1,1,0.933
51,8,1,87,2,NA,1,1,0.919
51,8,1,88,1,NA,1,1,0.739
51,8,1,89,2,NA,1,1,0.745
51,8,1,90,2,NA,1,0,0.719
51,8,1,91,1,NA,1,1,0.911
51,8,1,92,1,NA,1,1,0.564
51,8,1,93,1,NA,1,1,0.513
51,8,1,94,2,NA,1,1,0.736
51,8,1,95,1,NA,1,1,0.396
51,8,1,96,1,NA,1,1,0.655
51,9,1,4,2,NA,1,1,0.714
51,9,1,5,2,NA,1,1,0.756
51,9,1,6,1,NA,1,1,0.612
51,9,1,7,1,NA,1,1,0.66
51,9,1,8,2,NA,1,1,0.828
51,9,1,9,1,NA,1,1,1.21
51,9,1,10,2,NA,1,1,0.743
51,9,1,11,2,NA,1,1,0.724
51,9,1,12,1,NA,1,1,0.63
51,9,1,13,1,NA,1,1,0.694
51,9,1,14,1,NA,1,1,0.847
51,9,1,15,2,NA,1,1,0.757
51,9,1,16,2,NA,1,1,1.375
51,9,1,17,2,NA,1,1,0.975
51,9,1,18,1,NA,1,1,0.533
51,9,1,19,1,NA,1,1,0.972
51,9,1,20,1,NA,1,1,0.739
51,9,1,21,1,NA,1,1,0.772
51,9,1,22,1,NA,1,1,0.707
51,9,1,23,1,NA,1,1,0.983
51,9,1,24,2,NA,1,1,0.599
51,9,1,25,2,NA,1,1,1.051
51,9,1,26,1,NA,1,1,0.751
51,9,1,27,1,NA,1,1,0.921
51,9,1,28,1,NA,1,1,1.26
51,9,1,29,2,NA,1,1,1.077
51,9,1,30,2,NA,1,1,0.936
51,9,1,31,1,NA,1,1,0.922
51,9,1,32,1,NA,1,1,0.849
51,9,1,33,1,NA,1,1,0.771
51,9,1,34,2,NA,1,1,0.947
51,9,1,35,1,NA,1,1,0.836
51,9,1,36,2,NA,1,1,0.776
51,9,1,37,2,NA,1,1,0.731
51,9,1,38,1,NA,1,1,0.533
51,9,1,39,1,NA,1,1,0.539
51,9,1,40,1,NA,1,1,1.369
51,9,1,41,1,NA,1,1,0.66
51,9,1,42,2,NA,1,1,0.97
51,9,1,43,2,NA,1,1,0.883
51,9,1,44,1,NA,1,1,0.769
51,9,1,45,2,NA,1,1,0.702
51,9,1,46,2,NA,1,1,0.711
51,9,1,47,1,NA,1,1,1.21
51,9,1,48,2,NA,1,1,0.751
51,9,1,49,1,NA,1,1,0.68
51,9,1,50,2,NA,1,1,0.611
51,9,1,51,1,NA,1,1,0.803
51,9,1,53,1,NA,1,1,0.692
51,9,1,54,2,NA,1,1,1.153
51,9,1,55,2,NA,1,1,0.902
51,9,1,57,1,NA,1,1,0.722
51,9,1,58,1,NA,1,1,0.713
51,9,1,59,1,NA,1,1,0.683
51,9,1,60,2,NA,1,1,1.211
51,9,1,61,2,NA,1,1,0.759
51,9,1,62,2,NA,1,1,0.946
51,9,1,63,1,NA,1,1,0.656
51,9,1,64,1,NA,1,1,0.604
51,9,1,65,2,NA,1,1,1.081
51,9,1,66,2,NA,1,1,1.004
51,9,1,67,1,NA,1,1,0.731
51,9,1,68,1,NA,1,1,0.825
51,9,1,69,1,NA,1,1,0.468
51,9,1,70,2,NA,1,1,1.195
51,9,1,71,2,NA,1,1,0.857
51,9,1,72,2,NA,1,1,0.822
51,9,1,73,1,NA,1,1,0.929
51,9,1,74,2,NA,1,1,0.854
51,9,1,75,1,NA,1,1,0.553
51,9,1,76,1,NA,1,1,0.544
51,9,1,77,2,NA,1,1,1.12
51,9,1,78,2,NA,1,1,1.011
51,9,1,79,2,NA,1,1,1.261
51,9,1,80,2,NA,1,1,0.766
51,9,1,81,2,NA,1,1,0.751
51,9,1,82,2,NA,1,1,0.722
51,9,1,83,1,NA,1,1,0.699
51,9,1,84,2,NA,1,1,0.565
51,9,1,85,1,NA,1,1,0.907
51,9,1,86,2,NA,1,1,0.545
51,9,1,87,1,NA,1,1,0.572
51,9,1,88,1,NA,1,1,0.531
51,9,1,89,2,NA,1,1,0.673
51,9,1,90,1,NA,1,1,0.531
51,9,1,91,2,NA,1,1,0.736
51,9,1,92,2,NA,1,1,0.876
51,9,1,93,1,NA,1,1,0.576
51,9,1,94,2,NA,1,1,0.493
51,9,1,95,2,NA,1,1,0.703
51,9,1,96,1,NA,1,1,0.711
51,10,1,4,1,NA,1,1,0.653
51,10,1,5,2,NA,1,1,0.714
51,10,1,6,2,NA,1,1,0.697
51,10,1,7,2,NA,1,1,0.768
51,10,1,8,2,NA,1,1,0.796
51,10,1,9,2,NA,1,1,0.712
51,10,1,10,1,NA,1,1,0.57
51,10,1,11,2,NA,1,1,1.076
51,10,1,12,1,NA,1,1,0.576
51,10,1,13,1,NA,1,1,0.619
51,10,1,14,1,NA,1,1,0.821
51,10,1,15,1,NA,1,1,0.522
51,10,1,16,2,NA,1,1,0.706
51,10,1,17,1,NA,1,1,0.528
51,10,1,18,1,NA,1,1,0.428
51,10,1,19,2,NA,1,1,0.713
51,10,1,20,2,NA,1,1,0.666
51,10,1,21,2,NA,1,1,0.671
51,10,1,22,1,NA,1,1,0.548
51,10,1,23,2,NA,1,1,0.642
51,10,1,24,1,NA,1,1,0.68
51,10,1,25,2,NA,1,1,0.68
51,10,1,26,1,NA,1,1,0.61
51,10,1,27,2,NA,1,1,0.556
51,10,1,28,1,NA,1,1,0.474
51,10,1,29,2,NA,1,1,0.64
51,10,1,30,1,NA,1,1,0.556
51,10,1,31,2,NA,1,1,0.809
51,10,1,32,2,NA,1,1,0.701
51,10,1,33,2,NA,1,1,1.066
51,10,1,34,1,NA,1,1,0.627
51,10,1,35,2,NA,1,0,1.31
51,10,1,36,1,NA,1,1,0.751
51,10,1,37,1,NA,1,1,0.61
51,10,1,38,1,NA,1,1,0.546
51,10,1,39,2,NA,1,1,1.191
51,10,1,40,2,NA,1,1,0.771
51,10,1,41,2,NA,1,1,0.712
51,10,1,42,2,NA,1,1,1.037
51,10,1,43,2,NA,1,1,0.663
51,10,1,44,1,NA,1,1,0.742
51,10,1,45,2,NA,1,1,0.654
51,10,1,46,1,NA,1,1,0.512
51,10,1,47,1,NA,1,1,0.564
51,10,1,48,1,NA,1,1,0.794
51,10,1,49,2,NA,1,1,0.648
51,10,1,50,1,NA,1,1,0.709
51,10,1,51,1,NA,1,1,0.641
51,10,1,52,2,NA,1,1,0.9
51,10,1,53,2,NA,1,1,0.895
51,10,1,54,1,NA,1,1,0.844
51,10,1,55,2,NA,1,1,0.736
51,10,1,56,2,NA,1,1,0.802
51,10,1,57,2,NA,1,1,0.717
51,10,1,58,1,NA,1,1,0.608
51,10,1,59,2,NA,1,1,0.667
51,10,1,60,1,NA,1,1,0.528
51,10,1,61,1,NA,1,1,0.609
51,10,1,62,1,NA,1,1,0.625
51,10,1,63,1,NA,1,1,0.564
51,10,1,64,1,NA,1,1,0.517
51,10,1,65,1,NA,1,1,0.536
51,10,1,66,1,NA,1,1,0.575
51,10,1,67,2,NA,1,0,0.634
51,10,1,68,1,NA,1,1,0.458
51,10,1,69,2,NA,1,1,0.553
51,10,1,70,2,NA,1,1,0.781
51,10,1,71,1,NA,1,1,0.543
51,10,1,72,1,NA,1,1,0.513
51,10,1,73,2,NA,1,1,0.581
51,10,1,74,1,NA,1,1,0.492
51,10,1,75,1,NA,1,1,0.494
51,10,1,76,2,NA,1,1,0.74
51,10,1,77,1,NA,1,1,0.802
51,10,1,78,2,NA,1,1,0.873
51,10,1,79,2,NA,1,1,0.749
51,10,1,80,2,NA,1,1,0.57
51,10,1,81,1,NA,1,1,0.526
51,10,1,82,2,NA,1,1,0.561
51,10,1,83,2,NA,1,1,0.603
51,10,1,84,1,NA,1,1,0.513
51,10,1,85,2,NA,1,1,0.7
51,10,1,86,2,NA,1,1,0.769
51,10,1,87,2,NA,1,0,0.604
51,10,1,88,2,NA,1,0,1.13
51,10,1,90,1,NA,1,1,0.617
51,10,1,91,1,NA,1,1,0.619
51,10,1,92,2,NA,1,1,1.013
51,10,1,93,1,NA,1,1,0.436
51,10,1,94,1,NA,1,1,0.816
51,10,1,95,2,NA,1,1,0.868
51,10,1,96,1,NA,1,1,0.656
51,11,1,4,1,NA,1,1,0.776
51,11,1,5,1,NA,1,1,0.522
51,11,1,6,1,NA,1,1,0.492
51,11,1,7,1,NA,1,1,0.475
51,11,1,8,2,NA,1,1,0.744
51,11,1,9,1,NA,1,1,0.597
51,11,1,10,2,NA,1,1,0.534
51,11,1,11,2,NA,1,1,0.462
51,11,1,12,1,NA,1,1,0.628
51,11,1,13,1,NA,1,1,0.477
51,11,1,14,1,NA,1,1,0.592
51,11,1,15,2,NA,1,1,0.653
51,11,1,16,1,NA,1,1,0.576
51,11,1,17,2,NA,1,1,0.572
51,11,1,18,1,NA,1,1,0.5
51,11,1,19,2,NA,1,1,0.525
51,11,1,20,1,NA,1,1,0.539
51,11,1,21,1,NA,1,1,0.554
51,11,1,22,2,NA,1,1,0.644
51,11,1,23,2,NA,1,1,0.667
51,11,1,24,1,NA,1,1,0.617
51,11,1,25,2,NA,1,1,0.906
51,11,1,26,1,NA,1,1,0.8
51,11,1,27,2,NA,1,1,0.639
51,11,1,28,1,NA,1,1,0.478
51,11,1,29,1,NA,1,1,0.56
51,11,1,30,2,NA,1,1,0.514
51,11,1,31,2,NA,1,0,0.495
51,11,1,32,1,NA,1,1,0.58
51,11,1,33,1,NA,1,1,0.734
51,11,1,34,1,NA,1,1,0.619
51,11,1,35,1,NA,1,1,0.568
51,11,1,36,2,NA,1,1,0.857
51,11,1,37,1,NA,1,1,0.464
51,11,1,38,1,NA,1,1,0.506
51,11,1,39,1,NA,1,1,0.638
51,11,1,40,1,NA,1,1,0.446
51,11,1,41,2,NA,1,1,0.613
51,11,1,42,2,NA,1,1,0.754
51,11,1,43,2,NA,1,1,0.971
51,11,1,44,1,NA,1,1,0.537
51,11,1,45,1,NA,1,1,0.464
51,11,1,46,2,NA,1,1,0.831
51,11,1,47,1,NA,1,1,0.664
51,11,1,48,2,NA,1,1,0.874
51,11,1,49,2,NA,1,1,0.594
51,11,1,50,2,NA,1,1,0.732
51,11,1,51,2,NA,1,1,0.749
51,11,1,52,2,NA,1,1,0.688
51,11,1,53,2,NA,1,1,0.536
51,11,1,54,1,NA,1,1,0.417
51,11,1,55,1,NA,1,1,0.598
51,11,1,56,1,NA,1,1,0.488
51,11,1,57,1,NA,1,1,0.577
51,11,1,58,2,NA,1,1,0.42
51,11,1,59,2,NA,1,1,0.953
51,11,1,60,1,NA,1,1,0.52
51,11,1,61,2,NA,1,1,0.937
51,11,1,62,2,NA,1,1,0.474
51,11,1,63,2,NA,1,1,0.768
51,11,1,64,1,NA,1,1,0.647
51,11,1,65,1,NA,1,1,0.526
51,11,1,66,2,NA,1,1,1.098
51,11,1,67,2,NA,1,1,1.02
51,11,1,68,1,NA,1,1,0.543
51,11,1,69,2,NA,1,1,0.798
51,11,1,70,1,NA,1,1,0.564
51,11,1,71,2,NA,1,1,0.73
51,11,1,72,1,NA,1,1,0.562
51,11,1,73,2,NA,1,1,0.855
51,11,1,74,1,NA,1,1,0.617
51,11,1,75,2,NA,1,1,0.483
51,11,1,76,2,NA,1,1,0.77
51,11,1,77,2,NA,1,1,0.849
51,11,1,78,2,NA,1,1,0.699
51,11,1,79,1,NA,1,1,0.603
51,11,1,80,2,NA,1,1,0.692
51,11,1,81,2,NA,1,1,0.855
51,11,1,82,2,NA,1,1,1.083
51,11,1,83,2,NA,1,1,0.896
51,11,1,84,2,NA,1,1,0.67
51,11,1,85,1,NA,1,1,0.527
51,11,1,86,1,NA,1,1,0.461
51,11,1,87,2,NA,1,1,0.42
51,11,1,88,2,NA,1,1,0.667
51,11,1,89,1,NA,1,1,0.507
51,11,1,90,1,NA,1,1,0.528
51,11,1,91,2,NA,1,1,0.706
51,11,1,92,1,NA,1,1,0.525
51,11,1,93,2,NA,1,1,0.671
51,11,1,94,2,NA,1,1,0.57
51,11,1,95,2,NA,1,1,0.825
51,11,1,96,1,NA,1,1,0.469
51,12,1,4,1,NA,1,1,0.652
51,12,1,5,2,NA,1,1,0.736
51,12,1,6,2,NA,1,1,0.906
51,12,1,7,1,NA,1,1,0.709
51,12,1,8,2,NA,1,1,1.176
51,12,1,9,1,NA,1,1,0.866
51,12,1,10,1,NA,1,1,0.58
51,12,1,11,1,NA,1,1,1.023
51,12,1,12,2,NA,1,1,1.331
51,12,1,13,2,NA,1,1,0.686
51,12,1,14,1,NA,1,1,0.863
51,12,1,15,1,NA,1,1,0.674
51,12,1,16,2,NA,1,1,0.797
51,12,1,17,2,NA,1,1,0.76
51,12,1,18,2,NA,1,1,0.722
51,12,1,19,1,NA,1,1,0.541
51,12,1,20,2,NA,1,1,1.176
51,12,1,21,2,NA,1,1,0.763
51,12,1,22,2,NA,1,1,1.078
51,12,1,23,2,NA,1,1,0.657
51,12,1,24,1,NA,1,1,0.828
51,12,1,25,1,NA,1,1,0.767
51,12,1,26,2,NA,1,1,1.106
51,12,1,27,1,NA,1,1,1.085
51,12,1,28,2,NA,1,1,0.768
51,12,1,29,1,NA,1,1,0.819
51,12,1,30,2,NA,1,1,0.83
51,12,1,31,1,NA,1,1,0.689
51,12,1,32,2,NA,1,0,1.068
51,12,1,33,2,NA,1,1,0.919
51,12,1,34,2,NA,1,1,0.825
51,12,1,35,2,NA,1,1,0.804
51,12,1,36,1,NA,1,1,1.143
51,12,1,37,1,NA,1,1,0.754
51,12,1,38,2,NA,1,1,0.9
51,12,1,39,1,NA,1,1,0.887
51,12,1,40,2,NA,1,1,1.064
51,12,1,41,2,NA,1,1,0.898
51,12,1,42,1,NA,1,1,0.749
51,12,1,43,1,NA,1,1,0.92
51,12,1,44,2,NA,1,1,0.971
51,12,1,45,2,NA,1,1,1.206
51,12,1,47,1,NA,1,1,0.548
51,12,1,48,2,NA,1,1,0.647
51,12,1,49,1,NA,1,1,0.802
51,12,1,50,2,NA,1,1,0.813
51,12,1,51,2,NA,1,1,0.831
51,12,1,52,1,NA,1,1,0.691
51,12,1,53,1,NA,1,1,1.15
51,12,1,54,2,NA,1,1,0.897
51,12,1,55,2,NA,1,1,1.004
51,12,1,56,1,NA,1,1,0.71
51,12,1,57,1,NA,1,1,0.977
51,12,1,58,1,NA,1,1,0.884
51,12,1,59,2,NA,1,1,0.855
51,12,1,60,2,NA,1,1,0.986
51,12,1,61,1,NA,1,1,0.573
51,12,1,62,1,NA,1,1,1.151
51,12,1,64,2,NA,1,1,1.045
51,12,1,65,2,NA,1,1,1.064
51,12,1,66,1,NA,1,1,0.755
51,12,1,67,1,NA,1,1,0.742
51,12,1,68,1,NA,1,1,0.665
51,12,1,69,1,NA,1,1,0.637
51,12,1,70,2,NA,1,1,1.151
51,12,1,71,2,NA,1,1,1.154
51,12,1,72,2,NA,1,1,1.044
51,12,1,73,2,NA,1,1,0.927
51,12,1,74,1,NA,1,1,0.626
51,12,1,75,2,NA,1,1,0.805
51,12,1,76,1,NA,1,1,0.64
51,12,1,77,2,NA,1,1,0.779
51,12,1,78,1,NA,1,1,0.71
51,12,1,79,2,NA,1,1,0.889
51,12,1,81,1,NA,1,0,0.679
51,12,1,82,1,NA,1,1,0.554
51,12,1,83,2,NA,1,1,0.869
51,12,1,84,1,NA,1,1,0.6
51,12,1,85,1,NA,1,1,0.643
51,12,1,86,2,NA,1,1,0.781
51,12,1,87,2,NA,1,1,0.647
51,12,1,88,1,NA,1,1,0.435
51,12,1,89,2,NA,1,0,0.59
51,12,1,90,1,NA,1,1,0.609
51,12,1,91,2,NA,1,1,1.068
51,12,1,92,1,NA,1,1,0.75
51,12,1,93,1,NA,1,1,0.745
51,12,1,94,1,NA,1,1,0.747
51,12,1,95,2,NA,1,1,1.079
51,12,1,96,1,NA,1,1,0.865
51,13,1,4,1,NA,1,1,0.685
51,13,1,5,2,NA,1,1,0.771
51,13,1,6,1,NA,1,1,0.707
51,13,1,7,1,NA,1,1,0.62
51,13,1,8,2,NA,1,1,0.836
51,13,1,9,1,NA,1,1,0.633
51,13,1,10,1,NA,1,1,0.727
51,13,1,11,2,NA,1,1,0.963
51,13,1,12,1,NA,1,1,0.769
51,13,1,13,1,NA,1,1,0.735
51,13,1,14,1,NA,1,1,0.906
51,13,1,15,2,NA,1,1,1.069
51,13,1,16,2,NA,1,1,0.871
51,13,1,17,2,NA,1,1,0.974
51,13,1,18,1,NA,1,1,0.54
51,13,1,19,1,NA,1,1,0.652
51,13,1,20,2,NA,1,1,1.121
51,13,1,21,2,NA,1,1,0.863
51,13,1,22,1,NA,1,1,0.707
51,13,1,23,2,NA,1,1,0.876
51,13,1,24,2,NA,1,1,0.854
51,13,1,25,1,NA,1,1,0.716
51,13,1,26,1,NA,1,1,0.536
51,13,1,27,2,NA,1,1,0.944
51,13,1,28,1,NA,1,1,0.643
51,13,1,29,1,NA,1,1,0.53
51,13,1,30,2,NA,1,1,1.297
51,13,1,31,2,NA,1,1,0.851
51,13,1,32,2,NA,1,1,0.946
51,13,1,33,1,NA,1,1,0.72
51,13,1,34,2,NA,1,0,0.894
51,13,1,35,2,NA,1,1,0.867
51,13,1,36,2,NA,1,1,0.991
51,13,1,37,2,NA,1,1,0.821
51,13,1,38,2,NA,1,1,0.964
51,13,1,39,1,NA,1,1,0.713
51,13,1,40,1,NA,1,1,0.84
51,13,1,41,2,NA,1,1,1.147
51,13,1,42,1,NA,1,1,0.759
51,13,1,43,2,NA,1,1,0.814
51,13,1,44,1,NA,1,1,0.565
51,13,1,45,2,NA,1,1,1.169
51,13,1,46,2,NA,1,1,0.67
51,13,1,47,1,NA,1,1,0.468
51,13,1,48,1,NA,1,1,0.625
51,13,1,49,2,NA,1,1,0.8
51,13,1,50,2,NA,1,0,0.997
51,13,1,51,2,NA,1,1,0.811
51,13,1,52,2,NA,1,1,0.849
51,13,1,53,1,NA,1,1,0.583
51,13,1,54,1,NA,1,1,0.651
51,13,1,55,2,NA,1,1,0.889
51,13,1,56,2,NA,1,1,0.821
51,13,1,57,2,NA,1,1,0.799
51,13,1,58,1,NA,1,1,0.846
51,13,1,59,1,NA,1,1,0.997
51,13,1,60,2,NA,1,1,1.041
51,13,1,61,1,NA,1,1,1.056
51,13,1,62,1,NA,1,1,0.681
51,13,1,63,2,NA,1,1,0.799
51,13,1,64,1,NA,1,1,0.607
51,13,1,65,2,NA,1,1,0.964
51,13,1,66,2,NA,1,1,0.979
51,13,1,67,1,NA,1,1,0.529
51,13,1,68,1,NA,1,1,0.586
51,13,1,69,1,NA,1,1,0.589
51,13,1,70,2,NA,1,1,0.869
51,13,1,71,1,NA,1,1,0.909
51,13,1,72,2,NA,1,1,1.17
51,13,1,73,2,NA,1,1,0.824
51,13,1,74,1,NA,1,1,0.783
51,13,1,75,1,NA,1,1,0.725
51,13,1,76,2,NA,1,1,1.031
51,13,1,77,1,NA,1,1,0.622
51,13,1,78,1,NA,1,1,0.709
51,13,1,79,2,NA,1,1,1.009
51,13,1,80,1,NA,1,1,0.793
51,13,1,81,1,NA,1,1,0.758
51,13,1,82,2,NA,1,0,1.224
51,13,1,83,2,NA,1,1,1.12
51,13,1,84,2,NA,1,1,0.837
51,13,1,85,2,NA,1,1,0.979
51,13,1,86,2,NA,1,1,1.124
51,13,1,87,2,NA,1,1,1.278
51,13,1,88,1,NA,1,1,0.808
51,13,1,89,2,NA,1,1,1.112
51,13,1,90,1,NA,1,1,0.695
51,13,1,91,1,NA,1,1,0.564
51,13,1,92,1,NA,1,1,0.754
51,13,1,93,1,NA,1,1,0.623
51,13,1,94,2,NA,1,1,1
51,13,1,95,1,NA,1,1,0.715
51,13,1,96,1,NA,1,1,0.74
51,14,1,4,1,NA,1,1,0.43
51,14,1,5,1,NA,1,0,0.429
51,14,1,6,1,NA,1,1,0.546
51,14,1,7,1,NA,1,1,0.568
51,14,1,8,1,NA,1,1,0.633
51,14,1,9,1,NA,1,1,0.659
51,14,1,10,1,NA,1,1,0.411
51,14,1,11,2,NA,1,1,0.655
51,14,1,12,2,NA,1,1,0.688
51,14,1,13,2,NA,1,1,0.931
51,14,1,14,2,NA,1,1,0.683
51,14,1,15,2,NA,1,1,0.676
51,14,1,16,2,NA,1,1,0.886
51,14,1,17,1,NA,1,1,0.886
51,14,1,18,2,NA,1,1,1.043
51,14,1,19,2,NA,1,1,0.668
51,14,1,20,1,NA,1,1,0.774
51,14,1,21,1,NA,1,1,0.456
51,14,1,22,2,NA,1,1,0.811
51,14,1,23,1,NA,1,1,0.578
51,14,1,24,2,NA,1,1,1.035
51,14,1,25,2,NA,1,1,0.747
51,14,1,26,2,NA,1,1,0.718
51,14,1,27,1,NA,1,1,0.665
51,14,1,28,1,NA,1,1,0.534
51,14,1,29,1,NA,1,1,0.503
51,14,1,30,1,NA,1,1,0.766
51,14,1,31,2,NA,1,1,0.669
51,14,1,32,2,NA,1,1,0.851
51,14,1,33,1,NA,1,1,1.201
51,14,1,34,2,NA,1,1,0.614
51,14,1,35,2,NA,1,1,0.591
51,14,1,36,1,NA,1,1,0.751
51,14,1,37,1,NA,1,1,0.511
51,14,1,38,1,NA,1,1,0.505
51,14,1,39,1,NA,1,1,0.438
51,14,1,40,1,NA,1,1,0.434
51,14,1,41,1,NA,1,1,0.625
51,14,1,42,2,NA,1,1,0.695
51,14,1,43,2,NA,1,1,0.694
51,14,1,44,1,NA,1,1,0.614
51,14,1,45,2,NA,1,1,0.717
51,14,1,46,2,NA,1,1,0.655
51,14,1,47,2,NA,1,0,0.549
51,14,1,48,1,NA,1,1,0.664
51,14,1,49,2,NA,1,1,0.605
51,14,1,50,1,NA,1,1,0.563
51,14,1,51,1,NA,1,1,0.847
51,14,1,52,1,NA,1,1,0.808
51,14,1,53,2,NA,1,1,0.669
51,14,1,54,2,NA,1,1,0.723
51,14,1,55,1,NA,1,1,0.759
51,14,1,56,2,NA,1,1,0.973
51,14,1,57,1,NA,1,1,0.624
51,14,1,58,1,NA,1,1,0.618
51,14,1,59,2,NA,1,1,1.266
51,14,1,60,2,NA,1,1,0.778
51,14,1,61,1,NA,1,1,0.547
51,14,1,62,1,NA,1,1,0.532
51,14,1,63,2,NA,1,1,0.829
51,14,1,64,1,NA,1,1,0.484
51,14,1,65,1,NA,1,1,0.691
51,14,1,66,2,NA,1,1,0.815
51,14,1,67,2,NA,1,1,0.697
51,14,1,68,1,NA,1,1,0.465
51,14,1,69,2,NA,1,1,0.945
51,14,1,70,2,NA,1,1,1.202
51,14,1,71,2,NA,1,1,0.759
51,14,1,72,1,NA,1,1,0.464
51,14,1,73,1,NA,1,1,0.547
51,14,1,74,2,NA,1,1,1.052
51,14,1,75,2,NA,1,1,0.968
51,14,1,76,1,NA,1,1,0.643
51,14,1,77,2,NA,1,1,0.7
51,14,1,78,2,NA,1,1,0.559
51,14,1,79,2,NA,1,1,0.804
51,14,1,80,2,NA,1,1,0.614
51,14,1,81,2,NA,1,1,0.895
51,14,1,82,2,NA,1,1,0.734
51,14,1,83,1,NA,1,1,0.7
51,14,1,84,1,NA,1,1,0.568
51,14,1,85,1,NA,1,1,0.544
51,14,1,86,2,NA,1,1,0.795
51,14,1,87,2,NA,1,0,0.674
51,14,1,88,2,NA,1,1,1.001
51,14,1,89,2,NA,1,1,0.732
51,14,1,90,2,NA,1,1,0.745
51,14,1,91,1,NA,1,1,0.709
51,14,1,92,1,NA,1,1,1.059
51,14,1,93,1,NA,1,1,0.901
51,14,1,94,1,NA,1,1,0.744
51,14,1,95,1,NA,1,1,0.795
51,14,1,96,1,NA,1,1,1.012
51,15,1,4,2,NA,1,0,0.66
51,15,1,5,1,NA,1,1,0.57
51,15,1,6,2,NA,1,1,0.53
51,15,1,7,2,NA,1,1,0.889
51,15,1,8,1,NA,1,1,0.602
51,15,1,9,2,NA,1,1,0.831
51,15,1,10,1,NA,1,1,0.559
51,15,1,11,2,NA,1,1,0.624
51,15,1,12,1,NA,1,1,0.874
51,15,1,13,1,NA,1,1,0.393
51,15,1,14,2,NA,1,1,0.626
51,15,1,15,1,NA,1,1,0.619
51,15,1,16,2,NA,1,0,0.653
51,15,1,17,1,NA,1,1,0.62
51,15,1,18,1,NA,1,0,1.116
51,15,1,19,2,NA,1,1,0.974
51,15,1,20,2,NA,1,1,1.076
51,15,1,21,2,NA,1,1,0.868
51,15,1,22,1,NA,1,1,0.539
51,15,1,23,2,NA,1,1,0.765
51,15,1,24,2,NA,1,1,0.852
51,15,1,25,2,NA,1,1,0.901
51,15,1,26,1,NA,1,1,0.686
51,15,1,27,2,NA,1,1,0.817
51,15,1,28,1,NA,1,1,1.014
51,15,1,29,1,NA,1,0,1.081
51,15,1,30,1,NA,1,1,0.497
51,15,1,31,2,NA,1,1,0.531
51,15,1,32,1,NA,1,1,0.85
51,15,1,33,2,NA,1,1,0.874
51,15,1,34,1,NA,1,1,1.117
51,15,1,35,1,NA,1,1,0.876
51,15,1,36,1,NA,1,1,0.811
51,15,1,37,1,NA,1,1,0.571
51,15,1,38,2,NA,1,1,0.964
51,15,1,39,1,NA,1,1,0.529
51,15,1,40,1,NA,1,1,0.6
51,15,1,41,2,NA,1,1,0.751
51,15,1,42,1,NA,1,1,1.025
51,15,1,43,2,NA,1,1,1.08
51,15,1,45,2,NA,1,1,0.593
51,15,1,46,1,NA,1,1,0.596
51,15,1,47,2,NA,1,1,0.729
51,15,1,48,1,NA,1,1,0.552
51,15,1,49,2,NA,1,1,0.626
51,15,1,50,2,NA,1,1,0.661
51,15,1,51,2,NA,1,1,0.643
51,15,1,52,1,NA,1,1,0.523
51,15,1,53,1,NA,1,1,0.691
51,15,1,54,1,NA,1,1,0.815
51,15,1,55,2,NA,1,1,1.261
51,15,1,56,1,NA,1,1,0.404
51,15,1,57,1,NA,1,1,0.716
51,15,1,58,1,NA,1,1,0.758
51,15,1,59,1,NA,1,1,0.604
51,15,1,60,1,NA,1,1,0.995
51,15,1,61,2,NA,1,1,0.683
51,15,1,62,1,NA,1,1,0.789
51,15,1,63,2,NA,1,1,0.379
51,15,1,64,1,NA,1,1,0.571
51,15,1,65,2,NA,1,1,0.948
51,15,1,66,1,NA,1,1,0.63
51,15,1,67,1,NA,1,1,0.525
51,15,1,68,2,NA,1,1,0.622
51,15,1,69,2,NA,1,1,0.968
51,15,1,70,1,NA,1,1,0.567
51,15,1,71,2,NA,1,1,0.791
51,15,1,72,2,NA,1,1,0.775
51,15,1,73,2,NA,1,1,0.97
51,15,1,74,2,NA,1,1,1.041
51,15,1,75,2,NA,1,1,0.817
51,15,1,76,2,NA,1,1,0.762
51,15,1,77,2,NA,1,0,0.805
51,15,1,78,2,NA,1,1,0.595
51,15,1,79,2,NA,1,1,0.713
51,15,1,80,1,NA,1,1,0.633
51,15,1,81,2,NA,1,1,0.963
51,15,1,82,1,NA,1,1,0.803
51,15,1,83,2,NA,1,1,0.883
51,15,1,84,2,NA,1,1,0.676
51,15,1,85,1,NA,1,1,0.653
51,15,1,86,2,NA,1,1,1.269
51,15,1,87,2,NA,1,1,0.782
51,15,1,88,1,NA,1,1,0.936
51,15,1,89,2,NA,1,1,0.974
51,15,1,90,1,NA,1,1,0.599
51,15,1,91,1,NA,1,1,0.48
51,15,1,92,1,NA,1,1,0.633
51,15,1,93,2,NA,1,1,0.84
51,15,1,94,1,NA,1,1,0.481
51,15,1,95,1,NA,1,1,0.594
51,15,1,96,2,NA,1,1,0.589
51,16,1,4,2,NA,1,1,0.677
51,16,1,5,2,NA,1,1,0.839
51,16,1,6,1,NA,1,1,0.874
51,16,1,7,1,NA,1,1,0.831
51,16,1,8,1,NA,1,1,0.594
51,16,1,9,1,NA,1,1,0.426
51,16,1,10,1,NA,1,1,0.555
51,16,1,11,2,NA,1,1,1.023
51,16,1,12,2,NA,1,1,1.122
51,16,1,13,1,NA,1,1,1.039
51,16,1,14,1,NA,1,1,0.616
51,16,1,15,2,NA,1,1,0.914
51,16,1,16,1,NA,1,1,0.79
51,16,1,17,2,NA,1,1,0.748
51,16,1,18,1,NA,1,1,0.924
51,16,1,19,2,NA,1,1,1.08
51,16,1,20,2,NA,1,1,0.965
51,16,1,21,2,NA,1,1,0.872
51,16,1,22,2,NA,1,1,1.346
51,16,1,23,2,NA,1,1,0.741
51,16,1,24,1,NA,1,1,0.575
51,16,1,25,2,NA,1,1,0.809
51,16,1,26,2,NA,1,0,0.676
51,16,1,27,1,NA,1,1,0.576
51,16,1,28,1,NA,1,1,0.587
51,16,1,29,2,NA,1,1,0.85
51,16,1,30,1,NA,1,1,0.459
51,16,1,31,1,NA,1,1,0.521
51,16,1,32,2,NA,1,1,0.613
51,16,1,33,2,NA,1,1,0.836
51,16,1,34,1,NA,1,1,0.476
51,16,1,35,2,NA,1,1,0.712
51,16,1,36,1,NA,1,1,0.515
51,16,1,37,2,NA,1,1,0.55
51,16,1,38,1,NA,1,1,0.506
51,16,1,39,1,NA,1,1,0.599
51,16,1,40,2,NA,1,0,1.121
51,16,1,42,2,NA,1,1,0.574
51,16,1,43,2,NA,1,1,0.754
51,16,1,44,1,NA,1,1,0.543
51,16,1,45,2,NA,1,1,0.554
51,16,1,46,2,NA,1,1,0.463
51,16,1,47,1,NA,1,1,0.971
51,16,1,48,1,NA,1,1,0.559
51,16,1,49,1,NA,1,1,0.428
51,16,1,50,2,NA,1,1,0.817
51,16,1,51,1,NA,1,1,0.62
51,16,1,52,2,NA,1,1,0.891
51,16,1,53,1,NA,1,1,0.545
51,16,1,54,2,NA,1,1,0.651
51,16,1,55,2,NA,1,1,0.566
51,16,1,56,1,NA,1,1,0.459
51,16,1,57,1,NA,1,1,0.713
51,16,1,58,2,NA,1,1,0.579
51,16,1,59,1,NA,1,1,0.726
51,16,1,60,2,NA,1,1,0.627
51,16,1,61,2,NA,1,1,0.741
51,16,1,62,2,NA,1,1,0.456
51,16,1,63,1,NA,1,1,0.693
51,16,1,64,2,NA,1,1,0.597
51,16,1,65,2,NA,1,1,1.262
51,16,1,66,2,NA,1,1,1.097
51,16,1,67,1,NA,1,1,0.494
51,16,1,68,1,NA,1,1,0.626
51,16,1,69,2,NA,1,1,0.735
51,16,1,70,2,NA,1,0,0.595
51,16,1,71,1,NA,1,1,0.594
51,16,1,72,1,NA,1,1,0.689
51,16,1,73,2,NA,1,1,0.934
51,16,1,74,2,NA,1,1,0.521
51,16,1,75,1,NA,1,1,0.627
51,16,1,76,2,NA,1,1,0.48
51,16,1,77,2,NA,1,1,0.641
51,16,1,78,1,NA,1,1,0.545
51,16,1,79,2,NA,1,1,1.101
51,16,1,80,1,NA,1,1,0.441
51,16,1,81,1,NA,1,1,0.504
51,16,1,82,2,NA,1,0,0.618
51,16,1,83,1,NA,1,1,0.578
51,16,1,84,1,NA,1,1,0.808
51,16,1,85,1,NA,1,1,0.894
51,16,1,86,1,NA,1,1,0.514
51,16,1,87,2,NA,1,1,0.7
51,16,1,88,1,NA,1,1,0.514
51,16,1,89,1,NA,1,1,0.431
51,16,1,90,2,NA,1,1,0.563
51,16,1,91,1,NA,1,1,0.615
51,16,1,92,1,NA,1,1,0.409
51,16,1,93,2,NA,1,1,0.424
51,16,1,94,1,NA,1,1,0.553
51,16,1,95,1,NA,1,1,0.577
51,16,1,96,2,NA,1,1,0.588
51,17,1,4,2,NA,1,1,0.964
51,17,1,5,2,NA,1,1,0.762
51,17,1,6,1,NA,1,1,0.682
51,17,1,7,1,NA,1,1,0.546
51,17,1,8,2,NA,1,1,0.787
51,17,1,9,2,NA,1,1,0.811
51,17,1,10,1,NA,1,1,0.692
51,17,1,11,1,NA,1,1,0.629
51,17,1,12,1,NA,1,1,0.533
51,17,1,13,1,NA,1,1,0.594
51,17,1,14,1,NA,1,1,0.591
51,17,1,15,1,NA,1,1,0.863
51,17,1,16,1,NA,1,1,0.556
51,17,1,17,2,NA,1,1,1.06
51,17,1,18,1,NA,1,1,0.82
51,17,1,19,2,NA,1,1,0.765
51,17,1,20,1,NA,1,1,0.561
51,17,1,21,1,NA,1,1,0.561
51,17,1,22,2,NA,1,1,1.02
51,17,1,23,1,NA,1,1,0.588
51,17,1,24,2,NA,1,0,1.021
51,17,1,25,2,NA,1,1,0.83
51,17,1,26,2,NA,1,1,0.884
51,17,1,27,2,NA,1,1,0.829
51,17,1,28,1,NA,1,1,0.598
51,17,1,29,2,NA,1,1,0.719
51,17,1,30,2,NA,1,1,0.937
51,17,1,31,2,NA,1,1,0.888
51,17,1,32,1,NA,1,1,0.762
51,17,1,33,1,NA,1,1,0.74
51,17,1,34,1,NA,1,1,0.548
51,17,1,35,2,NA,1,1,0.766
51,17,1,36,2,NA,1,1,0.829
51,17,1,37,2,NA,1,1,0.808
51,17,1,38,2,NA,1,1,0.742
51,17,1,39,2,NA,1,1,1.078
51,17,1,40,1,NA,1,1,0.685
51,17,1,41,2,NA,1,1,0.492
51,17,1,42,2,NA,1,1,0.669
51,17,1,43,2,NA,1,1,1.06
51,17,1,44,1,NA,1,1,0.693
51,17,1,45,1,NA,1,1,0.613
51,17,1,47,1,NA,1,1,0.523
51,17,1,48,1,NA,1,1,0.607
51,17,1,49,2,NA,1,1,0.998
51,17,1,50,1,NA,1,1,0.79
51,17,1,51,2,NA,1,1,1.008
51,17,1,52,2,NA,1,1,0.793
51,17,1,53,1,NA,1,1,1.187
51,17,1,54,2,NA,1,1,1.051
51,17,1,55,1,NA,1,0,0.795
51,17,1,56,2,NA,1,1,1.018
51,17,1,57,2,NA,1,1,0.948
51,17,1,58,1,NA,1,1,0.653
51,17,1,59,2,NA,1,1,0.87
51,17,1,60,1,NA,1,1,1.001
51,17,1,61,1,NA,1,1,0.662
51,17,1,62,2,NA,1,1,0.841
51,17,1,63,2,NA,1,1,0.849
51,17,1,64,1,NA,1,1,0.538
51,17,1,65,2,NA,1,1,0.94
51,17,1,66,2,NA,1,1,0.937
51,17,1,67,1,NA,1,1,0.839
51,17,1,68,1,NA,1,1,0.53
51,17,1,69,1,NA,1,1,0.636
51,17,1,70,1,NA,1,1,0.733
51,17,1,71,2,NA,1,1,1.173
51,17,1,72,1,NA,1,1,0.741
51,17,1,73,2,NA,1,1,0.525
51,17,1,74,2,NA,1,1,0.567
51,17,1,75,1,NA,1,1,0.607
51,17,1,76,2,NA,1,1,0.79
51,17,1,77,1,NA,1,1,0.709
51,17,1,78,1,NA,1,1,0.559
51,17,1,79,1,NA,1,1,0.719
51,17,1,80,1,NA,1,1,0.585
51,17,1,81,1,NA,1,1,0.634
51,17,1,82,1,NA,1,1,0.645
51,17,1,83,2,NA,1,1,1.44
51,17,1,84,1,NA,1,1,0.555
51,17,1,85,1,NA,1,1,0.514
51,17,1,86,1,NA,1,1,0.636
51,17,1,87,2,NA,1,1,0.915
51,17,1,88,1,NA,1,1,0.642
51,17,1,89,2,NA,1,1,0.779
51,17,1,90,2,NA,1,1,1.22
51,17,1,91,2,NA,1,1,1.128
51,17,1,92,2,NA,1,1,0.699
51,17,1,93,2,NA,1,1,0.793
51,17,1,94,1,NA,1,1,0.657
51,17,1,95,2,NA,1,1,0.842
51,17,1,96,1,NA,1,1,0.533
51,18,1,4,2,NA,1,1,0.448
51,18,1,5,2,NA,1,1,0.95
51,18,1,6,2,NA,1,1,0.554
51,18,1,7,1,NA,1,1,0.447
51,18,1,8,1,NA,1,1,0.524
51,18,1,9,2,NA,1,1,0.598
51,18,1,10,2,NA,1,1,0.868
51,18,1,11,2,NA,1,1,0.623
51,18,1,12,2,NA,1,1,0.881
51,18,1,13,2,NA,1,1,0.493
51,18,1,14,1,NA,1,1,0.47
51,18,1,15,1,NA,1,1,0.576
51,18,1,16,2,NA,1,1,0.534
51,18,1,17,1,NA,1,1,0.671
51,18,1,18,2,NA,1,1,1.076
51,18,1,19,2,NA,1,1,0.946
51,18,1,20,2,NA,1,1,0.916
51,18,1,21,2,NA,1,1,0.551
51,18,1,22,1,NA,1,1,0.486
51,18,1,23,1,NA,1,1,0.692
51,18,1,24,1,NA,1,1,0.683
51,18,1,25,1,NA,1,1,0.483
51,18,1,26,2,NA,1,1,0.874
51,18,1,27,1,NA,1,1,0.369
51,18,1,28,1,NA,1,1,0.57
51,18,1,29,2,NA,1,1,1.297
51,18,1,30,1,NA,1,1,0.477
51,18,1,31,2,NA,1,1,0.538
51,18,1,32,1,NA,1,1,0.422
51,18,1,33,1,NA,1,1,0.789
51,18,1,34,1,NA,1,1,0.527
51,18,1,35,2,NA,1,1,0.655
51,18,1,36,1,NA,1,1,0.82
51,18,1,37,1,NA,1,1,0.549
51,18,1,38,2,NA,1,1,0.802
51,18,1,39,2,NA,1,1,1.075
51,18,1,40,2,NA,1,1,0.604
51,18,1,41,1,NA,1,1,0.618
51,18,1,42,2,NA,1,1,0.852
51,18,1,43,1,NA,1,1,0.799
51,18,1,44,1,NA,1,1,0.531
51,18,1,45,1,NA,1,1,0.437
51,18,1,46,2,NA,1,1,0.65
51,18,1,47,1,NA,1,1,0.549
51,18,1,48,1,NA,1,1,0.538
51,18,1,50,1,NA,1,1,0.752
51,18,1,51,2,NA,1,1,1.244
51,18,1,52,1,NA,1,1,0.533
51,18,1,53,2,NA,1,1,0.842
51,18,1,54,1,NA,1,1,0.625
51,18,1,55,2,NA,1,1,0.988
51,18,1,56,2,NA,1,1,0.422
51,18,1,57,1,NA,1,1,0.505
51,18,1,58,2,NA,1,1,0.629
51,18,1,59,2,NA,1,1,0.529
51,18,1,60,2,NA,1,1,0.725
51,18,1,61,2,NA,1,1,0.976
51,18,1,62,1,NA,1,1,0.451
51,18,1,63,1,NA,1,1,0.568
51,18,1,64,1,NA,1,0,0.38
51,18,1,65,1,NA,1,1,0.896
51,18,1,66,1,NA,1,1,1.113
51,18,1,67,2,NA,1,1,0.515
51,18,1,68,1,NA,1,1,0.533
51,18,1,69,2,NA,1,1,0.435
51,18,1,70,1,NA,1,1,0.617
51,18,1,71,2,NA,1,1,0.915
51,18,1,72,2,NA,1,1,0.427
51,18,1,73,1,NA,1,1,0.514
51,18,1,74,1,NA,1,1,0.426
51,18,1,75,2,NA,1,1,0.721
51,18,1,76,1,NA,1,1,0.558
51,18,1,77,2,NA,1,1,0.732
51,18,1,78,1,NA,1,1,0.484
51,18,1,79,2,NA,1,1,0.691
51,18,1,80,2,NA,1,1,0.897
51,18,1,81,1,NA,1,1,0.501
51,18,1,82,2,NA,1,1,0.603
51,18,1,83,1,NA,1,1,0.478
51,18,1,84,2,NA,1,1,0.485
51,18,1,85,1,NA,1,1,0.496
51,18,1,86,2,NA,1,1,0.488
51,18,1,87,2,NA,1,1,0.76
51,18,1,88,1,NA,1,1,0.497
51,18,1,89,2,NA,1,1,0.831
51,18,1,90,1,NA,1,1,0.527
51,18,1,91,1,NA,1,1,0.526
51,18,1,92,2,NA,1,1,0.51
51,18,1,93,1,NA,1,1,0.447
51,18,1,94,1,NA,1,1,0.357
51,18,1,95,2,NA,1,1,0.593
51,18,1,96,1,NA,1,1,0.389
51,19,1,4,1,NA,1,1,0.446
51,19,1,5,2,NA,1,0,0.577
51,19,1,6,2,NA,1,0,0.933
51,19,1,7,1,NA,1,1,0.623
51,19,1,8,2,NA,1,1,0.905
51,19,1,9,2,NA,1,0,0.708
51,19,1,10,2,NA,1,1,0.937
51,19,1,11,1,NA,1,1,0.891
51,19,1,12,1,NA,1,1,0.638
51,19,1,13,1,NA,1,1,1.089
51,19,1,14,2,NA,1,1,0.605
51,19,1,15,1,NA,1,1,0.759
51,19,1,16,2,NA,1,1,1.114
51,19,1,17,2,NA,1,1,0.967
51,19,1,18,2,NA,1,1,0.889
51,19,1,19,2,NA,1,1,0.508
51,19,1,20,1,NA,1,1,0.527
51,19,1,21,1,NA,1,1,0.452
51,19,1,22,2,NA,1,0,0.718
51,19,1,23,2,NA,1,1,0.672
51,19,1,24,2,NA,1,1,0.893
51,19,1,25,1,NA,1,1,0.615
51,19,1,26,2,NA,1,0,0.883
51,19,1,27,1,NA,1,1,0.959
51,19,1,28,1,NA,1,1,0.563
51,19,1,29,2,NA,1,1,1.158
51,19,1,30,1,NA,1,1,0.466
51,19,1,31,1,NA,1,1,0.51
51,19,1,32,2,NA,1,1,0.739
51,19,1,33,2,NA,1,0,0.557
51,19,1,34,2,NA,1,0,1.152
51,19,1,35,1,NA,1,1,0.771
51,19,1,36,1,NA,1,1,0.519
51,19,1,37,2,NA,1,1,1.041
51,19,1,38,2,NA,1,1,1.435
51,19,1,39,2,NA,1,1,0.661
51,19,1,40,2,NA,1,0,0.815
51,19,1,41,2,NA,1,1,1.272
51,19,1,42,2,NA,1,1,0.842
51,19,1,43,2,NA,1,1,0.926
51,19,1,44,1,NA,1,1,0.642
51,19,1,45,1,NA,1,1,1.092
51,19,1,46,1,NA,1,1,0.646
51,19,1,47,2,NA,1,0,1.082
51,19,1,48,2,NA,1,0,1.196
51,19,1,49,1,NA,1,1,1.111
51,19,1,50,2,NA,1,1,0.682
51,19,1,51,1,NA,1,1,0.678
51,19,1,52,1,NA,1,1,0.6
51,19,1,53,1,NA,1,1,0.435
51,19,1,54,2,NA,1,1,1.175
51,19,1,55,2,NA,1,1,1.137
51,19,1,56,1,NA,1,1,0.668
51,19,1,57,1,NA,1,1,1.087
51,19,1,58,1,NA,1,1,0.563
51,19,1,59,1,NA,1,1,0.508
51,19,1,60,1,NA,1,1,0.783
51,19,1,61,1,NA,1,1,0.481
51,19,1,62,1,NA,1,1,0.613
51,19,1,63,1,NA,1,1,0.575
51,19,1,64,2,NA,1,1,0.682
51,19,1,65,1,NA,1,1,0.525
51,19,1,66,1,NA,1,1,0.537
51,19,1,67,2,NA,1,1,0.667
51,19,1,68,2,NA,1,1,0.83
51,19,1,69,1,NA,1,1,0.899
51,19,1,70,1,NA,1,1,0.701
51,19,1,71,1,NA,1,1,0.536
51,19,1,72,2,NA,1,0,0.963
51,19,1,73,2,NA,1,1,0.951
51,19,1,74,2,NA,1,1,1.025
51,19,1,75,1,NA,1,1,1.188
51,19,1,76,2,NA,1,0,1.233
51,19,1,77,1,NA,1,1,0.643
51,19,1,78,1,NA,1,0,0.798
51,19,1,79,1,NA,1,1,0.577
51,19,1,80,2,NA,1,1,0.917
51,19,1,81,2,NA,1,1,0.856
51,19,1,82,2,NA,1,1,0.666
51,19,1,83,2,NA,1,1,0.662
51,19,1,84,1,NA,1,1,0.562
51,19,1,85,1,NA,1,1,1.085
51,19,1,86,1,NA,1,1,0.633
51,19,1,87,2,NA,1,1,0.973
51,19,1,88,2,NA,1,0,0.68
51,19,1,89,2,NA,1,1,0.836
51,19,1,90,1,NA,1,1,0.503
51,19,1,91,1,NA,1,1,0.891
51,19,1,92,1,NA,1,1,0.55
51,19,1,93,1,NA,1,1,0.537
51,19,1,94,1,NA,1,1,0.492
51,19,1,95,1,NA,1,1,0.752
51,19,1,96,2,NA,1,1,0.618
51,20,1,4,2,NA,1,0,0.751
51,20,1,5,2,NA,1,1,1.073
51,20,1,6,1,NA,1,1,0.609
51,20,1,7,1,NA,1,1,0.872
51,20,1,8,1,NA,1,1,1.249
51,20,1,9,1,NA,1,1,0.766
51,20,1,10,1,NA,1,1,0.556
51,20,1,11,1,NA,1,1,0.499
51,20,1,12,1,NA,1,1,0.458
51,20,1,13,2,NA,1,1,0.63
51,20,1,14,2,NA,1,1,0.665
51,20,1,15,2,NA,1,1,0.877
51,20,1,17,2,NA,1,0,0.87
51,20,1,18,1,NA,1,1,0.649
51,20,1,19,1,NA,1,1,0.892
51,20,1,20,1,NA,1,0,0.626
51,20,1,21,2,NA,1,1,0.653
51,20,1,22,1,NA,1,1,0.574
51,20,1,23,2,NA,1,1,0.72
51,20,1,24,2,NA,1,1,0.712
51,20,1,25,1,NA,1,1,0.683
51,20,1,26,2,NA,1,1,0.761
51,20,1,27,1,NA,1,1,0.541
51,20,1,28,2,NA,1,1,0.493
51,20,1,29,2,NA,1,1,0.634
51,20,1,30,2,NA,1,1,0.78
51,20,1,31,1,NA,1,1,0.817
51,20,1,32,1,NA,1,1,0.641
51,20,1,33,2,NA,1,1,0.858
51,20,1,34,2,NA,1,1,1.095
51,20,1,35,1,NA,1,1,0.553
51,20,1,36,1,NA,1,1,0.715
51,20,1,37,2,NA,1,1,0.692
51,20,1,38,1,NA,1,1,0.807
51,20,1,39,1,NA,1,0,0.503
51,20,1,40,1,NA,1,1,0.547
51,20,1,41,1,NA,1,1,0.537
51,20,1,42,1,NA,1,1,0.896
51,20,1,43,1,NA,1,1,0.643
51,20,1,44,2,NA,1,1,1.348
51,20,1,46,2,NA,1,1,0.89
51,20,1,47,1,NA,1,1,0.386
51,20,1,48,1,NA,1,1,0.507
51,20,1,49,1,NA,1,1,0.541
51,20,1,50,1,NA,1,1,0.504
51,20,1,51,2,NA,1,1,0.852
51,20,1,52,2,NA,1,1,0.517
51,20,1,53,1,NA,1,1,0.616
51,20,1,54,2,NA,1,1,0.828
51,20,1,55,1,NA,1,1,0.545
51,20,1,56,1,NA,1,1,0.501
51,20,1,57,1,NA,1,1,0.457
51,20,1,58,2,NA,1,1,0.352
51,20,1,59,2,NA,1,0,1.062
51,20,1,60,2,NA,1,1,0.824
51,20,1,61,2,NA,1,1,0.849
51,20,1,62,1,NA,1,1,0.598
51,20,1,63,1,NA,1,1,0.921
51,20,1,64,2,NA,1,1,0.6
51,20,1,65,2,NA,1,1,0.72
51,20,1,66,2,NA,1,1,1.212
51,20,1,67,1,NA,1,1,0.571
51,20,1,68,2,NA,1,1,0.708
51,20,1,69,2,NA,1,1,0.476
51,20,1,70,2,NA,1,1,0.88
51,20,1,71,1,NA,1,1,0.605
51,20,1,72,2,NA,1,0,0.637
51,20,1,73,1,NA,1,1,0.641
51,20,1,74,1,NA,1,1,0.56
51,20,1,75,1,NA,1,1,0.508
51,20,1,76,2,NA,1,1,0.758
51,20,1,77,2,NA,1,1,0.776
51,20,1,78,1,NA,1,1,0.535
51,20,1,79,2,NA,1,1,0.475
51,20,1,80,2,NA,1,1,0.68
51,20,1,81,1,NA,1,1,0.674
51,20,1,82,2,NA,1,1,0.851
51,20,1,83,2,NA,1,0,0.557
51,20,1,84,2,NA,1,1,0.623
51,20,1,85,2,NA,1,1,0.769
51,20,1,86,2,NA,1,1,0.985
51,20,1,87,2,NA,1,1,1.154
51,20,1,88,1,NA,1,1,0.768
51,20,1,89,2,NA,1,1,0.86
51,20,1,90,2,NA,1,1,0.545
51,20,1,91,2,NA,1,1,1.123
51,20,1,92,2,NA,1,1,0.57
51,20,1,93,2,NA,1,1,1.015
51,20,1,94,1,NA,1,1,0.875
51,20,1,95,1,NA,1,1,0.636
51,20,1,96,1,NA,1,1,1.026
51,21,1,4,2,NA,1,1,1.253
51,21,1,5,1,NA,1,1,0.682
51,21,1,6,2,NA,1,0,1.444
51,21,1,8,1,NA,1,1,0.956
51,21,1,9,1,NA,1,1,1.158
51,21,1,10,1,NA,1,1,0.816
51,21,1,11,2,NA,1,1,1.201
51,21,1,12,1,NA,1,1,0.927
51,21,1,13,2,NA,1,0,1.116
51,21,1,14,2,NA,1,1,1.182
51,21,1,15,1,NA,1,1,1.408
51,21,1,16,2,NA,1,1,1.027
51,21,1,17,1,NA,1,1,0.999
51,21,1,18,1,NA,1,1,1.027
51,21,1,19,2,NA,1,1,1.396
51,21,1,20,2,NA,1,1,1.407
51,21,1,21,1,NA,1,1,0.806
51,21,1,22,2,NA,1,1,1.151
51,21,1,23,2,NA,1,1,1.121
51,21,1,24,2,NA,1,1,0.837
51,21,1,26,2,NA,1,1,1.436
51,21,1,27,1,NA,1,1,0.843
51,21,1,28,1,NA,1,1,0.877
51,21,1,29,2,NA,1,1,1.142
51,21,1,30,1,NA,1,1,0.978
51,21,1,31,1,NA,1,1,1.07
51,21,1,32,1,NA,1,1,0.872
51,21,1,33,1,NA,1,1,1.168
51,21,1,35,2,NA,1,1,1.161
51,21,1,38,1,NA,1,1,0.938
51,21,1,39,1,NA,1,1,0.806
51,21,1,40,2,NA,1,1,1.494
51,21,1,41,1,NA,1,1,0.878
51,21,1,42,1,NA,1,1,0.907
51,21,1,43,1,NA,1,1,1.157
51,21,1,44,2,NA,1,1,0.926
51,21,1,45,1,NA,1,1,1.131
51,21,1,48,1,NA,1,1,0.918
51,21,1,50,2,NA,1,1,1.392
51,21,1,51,1,NA,1,1,0.893
51,21,1,52,2,NA,1,0,1.146
51,21,1,54,2,NA,1,1,1.243
51,21,1,55,2,NA,1,1,1.09
51,21,1,56,1,NA,1,1,0.981
51,21,1,57,1,NA,1,1,1.049
51,21,1,58,2,NA,1,1,1.148
51,21,1,59,1,NA,1,0,0.999
51,21,1,60,2,NA,1,0,1.477
51,21,1,61,1,NA,1,1,1.08
51,21,1,62,2,NA,1,1,0.943
51,21,1,63,2,NA,1,1,1.366
51,21,1,64,1,NA,1,1,1.06
51,21,1,65,2,NA,1,1,1.354
51,21,1,66,1,NA,1,1,0.844
51,21,1,67,1,NA,1,1,0.824
51,21,1,68,1,NA,1,1,0.96
51,21,1,71,1,NA,1,1,0.796
51,21,1,72,1,NA,1,1,0.715
51,21,1,73,2,NA,1,1,0.917
51,21,1,74,2,NA,1,1,0.936
51,21,1,75,1,NA,1,1,0.664
51,21,1,76,1,NA,1,1,0.735
51,21,1,77,2,NA,1,1,1.216
51,21,1,78,2,NA,1,1,0.599
51,21,1,79,1,NA,1,1,0.898
51,21,1,81,2,NA,1,1,1.394
51,21,1,83,2,NA,1,1,1.157
51,21,1,84,2,NA,1,1,1.132
51,21,1,85,2,NA,1,1,1.08
51,21,1,86,1,NA,1,0,0.834
51,21,1,87,2,NA,1,1,1.361
51,21,1,88,2,NA,1,1,0.884
51,21,1,89,2,NA,1,0,1.253
51,21,1,90,1,NA,1,1,1.1
51,21,1,91,1,NA,1,1,0.745
51,21,1,92,1,NA,1,1,0.958
51,21,1,93,1,NA,1,1,0.946
51,21,1,94,1,NA,1,1,0.769
51,21,1,95,1,NA,1,1,1.029
51,21,1,96,2,NA,1,1,1.182
51,23,1,4,2,NA,1,1,0.602
51,23,1,5,1,NA,1,1,0.508
51,23,1,6,2,NA,1,1,0.869
51,23,1,7,2,NA,1,1,0.505
51,23,1,8,1,NA,1,1,0.689
51,23,1,9,2,NA,1,1,0.589
51,23,1,10,1,NA,1,1,0.497
51,23,1,11,1,NA,1,1,0.484
51,23,1,12,2,NA,1,1,0.803
51,23,1,13,1,NA,1,1,0.573
51,23,1,14,2,NA,1,1,0.813
51,23,1,15,1,NA,1,1,0.83
51,23,1,16,1,NA,1,1,0.606
51,23,1,17,2,NA,1,1,0.55
51,23,1,18,2,NA,1,1,0.531
51,23,1,19,1,NA,1,1,0.59
51,23,1,20,1,NA,1,1,0.537
51,23,1,21,2,NA,1,1,1.072
51,23,1,22,1,NA,1,1,0.464
51,23,1,23,1,NA,1,1,0.69
51,23,1,24,2,NA,1,1,0.498
51,23,1,25,1,NA,1,1,0.455
51,23,1,26,1,NA,1,1,0.517
51,23,1,27,2,NA,1,1,0.716
51,23,1,28,2,NA,1,1,0.593
51,23,1,29,2,NA,1,1,0.606
51,23,1,30,1,NA,1,1,0.609
51,23,1,31,1,NA,1,1,0.54
51,23,1,32,1,NA,1,1,0.94
51,23,1,33,2,NA,1,1,0.678
51,23,1,34,1,NA,1,1,1.325
51,23,1,35,1,NA,1,1,0.581
51,23,1,36,1,NA,1,1,0.582
51,23,1,37,2,NA,1,1,0.729
51,23,1,38,2,NA,1,1,0.614
51,23,1,39,2,NA,1,1,0.641
51,23,1,40,2,NA,1,1,0.634
51,23,1,41,1,NA,1,1,0.527
51,23,1,42,2,NA,1,1,0.691
51,23,1,43,1,NA,1,1,0.538
51,23,1,44,2,NA,1,1,1.047
51,23,1,45,1,NA,1,1,0.668
51,23,1,46,2,NA,1,1,0.7
51,23,1,47,2,NA,1,1,0.509
51,23,1,48,2,NA,1,1,0.766
51,23,1,49,2,NA,1,1,0.716
51,23,1,50,2,NA,1,1,0.668
51,23,1,51,2,NA,1,1,0.902
51,23,1,52,2,NA,1,1,0.496
51,23,1,53,1,NA,1,1,0.566
51,23,1,54,1,NA,1,1,0.497
51,23,1,55,1,NA,1,1,0.439
51,23,1,56,1,NA,1,1,0.701
51,23,1,57,1,NA,1,1,0.617
51,23,1,58,2,NA,1,1,0.711
51,23,1,59,2,NA,1,1,0.73
51,23,1,60,2,NA,1,1,0.559
51,23,1,61,2,NA,1,1,0.445
51,23,1,62,2,NA,1,1,0.702
51,23,1,63,1,NA,1,1,0.652
51,23,1,64,1,NA,1,1,0.467
51,23,1,65,1,NA,1,1,0.516
51,23,1,66,2,NA,1,1,0.847
51,23,1,67,2,NA,1,1,0.651
51,23,1,68,2,NA,1,1,0.784
51,23,1,69,1,NA,1,1,0.733
51,23,1,70,1,NA,1,1,0.566
51,23,1,71,1,NA,1,1,0.639
51,23,1,72,1,NA,1,1,0.593
51,23,1,73,2,NA,1,1,0.613
51,23,1,74,2,NA,1,1,0.653
51,23,1,75,2,NA,1,1,0.636
51,23,1,76,2,NA,1,1,0.73
51,23,1,77,1,NA,1,1,0.538
51,23,1,78,2,NA,1,1,0.713
51,23,1,79,1,NA,1,1,0.455
51,23,1,80,1,NA,1,1,0.707
51,23,1,81,1,NA,1,1,0.494
51,23,1,82,2,NA,1,1,0.615
51,23,1,83,1,NA,1,1,0.718
51,23,1,84,2,NA,1,0,0.622
51,23,1,85,2,NA,1,1,0.626
51,23,1,86,1,NA,1,1,0.691
51,23,1,87,1,NA,1,1,0.634
51,23,1,88,2,NA,1,1,0.719
51,23,1,89,2,NA,1,1,0.846
51,23,1,90,1,NA,1,1,0.864
51,23,1,91,2,NA,1,1,0.71
51,23,1,92,2,NA,1,1,0.662
51,23,1,93,1,NA,1,1,0.784
51,23,1,94,1,NA,1,1,0.65
51,23,1,95,1,NA,1,1,0.559
51,23,1,96,1,NA,1,1,0.556
51,25,1,4,1,NA,1,1,0.582
51,25,1,5,2,NA,1,1,1.047
51,25,1,6,1,NA,1,1,0.569
51,25,1,7,2,NA,1,1,0.837
51,25,1,8,2,NA,1,1,0.835
51,25,1,9,2,NA,1,0,1.025
51,25,1,10,2,NA,1,1,0.925
51,25,1,11,1,NA,1,1,0.576
51,25,1,12,1,NA,1,1,0.596
51,25,1,13,1,NA,1,1,0.61
51,25,1,14,2,NA,1,1,0.985
51,25,1,15,2,NA,1,1,1.01
51,25,1,16,2,NA,1,1,0.905
51,25,1,17,1,NA,1,1,0.717
51,25,1,18,2,NA,1,1,1.162
51,25,1,19,1,NA,1,1,0.976
51,25,1,20,2,NA,1,1,0.761
51,25,1,21,1,NA,1,1,0.648
51,25,1,22,1,NA,1,1,0.49
51,25,1,23,1,NA,1,1,0.703
51,25,1,24,2,NA,1,1,1.001
51,25,1,25,1,NA,1,1,1.156
51,25,1,26,2,NA,1,1,1.033
51,25,1,27,2,NA,1,1,1.196
51,25,1,28,1,NA,1,1,1.118
51,25,1,29,2,NA,1,1,0.812
51,25,1,30,2,NA,1,1,1.361
51,25,1,31,2,NA,1,1,1.205
51,25,1,32,1,NA,1,1,1.448
51,25,1,33,2,NA,1,1,1.104
51,25,1,34,1,NA,1,1,1.188
51,25,1,35,1,NA,1,1,0.534
51,25,1,36,2,NA,1,1,0.87
51,25,1,37,1,NA,1,1,0.988
51,25,1,38,1,NA,1,1,0.685
51,25,1,39,1,NA,1,1,0.692
51,25,1,40,2,NA,1,1,0.839
51,25,1,41,2,NA,1,1,0.862
51,25,1,42,1,NA,1,1,0.687
51,25,1,43,2,NA,1,1,0.696
51,25,1,44,1,NA,1,1,0.675
51,25,1,45,1,NA,1,1,0.592
51,25,1,46,2,NA,1,1,0.988
51,25,1,47,1,NA,1,1,0.567
51,25,1,48,1,NA,1,1,0.492
51,25,1,49,2,NA,1,1,1.086
51,25,1,50,2,NA,1,1,0.92
51,25,1,51,1,NA,1,1,0.444
51,25,1,52,2,NA,1,1,1.13
51,25,1,53,2,NA,1,1,0.851
51,25,1,55,1,NA,1,1,0.724
51,25,1,56,1,NA,1,1,0.441
51,25,1,57,1,NA,1,1,0.58
51,25,1,58,2,NA,1,1,1.048
51,25,1,59,1,NA,1,1,0.71
51,25,1,60,1,NA,1,1,0.604
51,25,1,61,2,NA,1,1,0.916
51,25,1,62,1,NA,1,1,0.596
51,25,1,63,2,NA,1,1,1.158
51,25,1,64,2,NA,1,1,0.876
51,25,1,65,1,NA,1,1,0.578
51,25,1,66,2,NA,1,1,0.963
51,25,1,67,2,NA,1,1,1.181
51,25,1,68,2,NA,1,1,1
51,25,1,69,1,NA,1,1,0.889
51,25,1,70,1,NA,1,1,0.731
51,25,1,71,1,NA,1,1,0.452
51,25,1,72,1,NA,1,1,0.656
51,25,1,73,2,NA,1,1,1.05
51,25,1,74,1,NA,1,1,1.068
51,25,1,75,2,NA,1,1,0.821
51,25,1,76,2,NA,1,1,0.937
51,25,1,77,2,NA,1,1,1.068
51,25,1,78,2,NA,1,1,0.912
51,25,1,79,2,NA,1,1,0.745
51,25,1,80,1,NA,1,1,0.629
51,25,1,81,2,NA,1,1,0.899
51,25,1,82,2,NA,1,1,0.843
51,25,1,83,1,NA,1,1,0.57
51,25,1,84,2,NA,1,1,0.668
51,25,1,85,1,NA,1,1,0.531
51,25,1,86,2,NA,1,1,1.094
51,25,1,87,2,NA,1,1,0.831
51,25,1,88,1,NA,1,1,0.936
51,25,1,89,1,NA,1,1,0.623
51,25,1,90,1,NA,1,1,0.57
51,25,1,91,2,NA,1,1,0.719
51,25,1,92,2,NA,1,1,0.738
51,25,1,93,2,NA,1,1,1.186
51,25,1,94,1,NA,1,1,0.788
51,25,1,95,1,NA,1,1,0.587
51,25,1,96,1,NA,1,1,0.455
51,26,1,4,1,NA,1,1,0.616
51,26,1,5,1,NA,1,1,0.588
51,26,1,6,2,NA,1,1,0.646
51,26,1,7,2,NA,1,1,0.487
51,26,1,8,2,NA,1,1,0.718
51,26,1,9,2,NA,1,1,0.639
51,26,1,10,2,NA,1,1,0.686
51,26,1,11,1,NA,1,1,0.737
51,26,1,12,1,NA,1,1,0.551
51,26,1,13,1,NA,1,1,0.629
51,26,1,14,2,NA,1,1,0.877
51,26,1,15,2,NA,1,1,0.589
51,26,1,16,2,NA,1,1,0.662
51,26,1,17,1,NA,1,1,0.484
51,26,1,18,2,NA,1,1,0.544
51,26,1,19,2,NA,1,1,0.608
51,26,1,20,1,NA,1,1,0.548
51,26,1,21,2,NA,1,1,0.75
51,26,1,22,1,NA,1,1,0.503
51,26,1,23,1,NA,1,1,0.449
51,26,1,24,2,NA,1,1,0.825
51,26,1,25,1,NA,1,1,0.443
51,26,1,26,1,NA,1,1,0.965
51,26,1,27,2,NA,1,1,0.669
51,26,1,28,1,NA,1,1,0.607
51,26,1,29,2,NA,1,1,0.724
51,26,1,30,2,NA,1,1,0.531
51,26,1,31,1,NA,1,1,0.372
51,26,1,32,1,NA,1,1,0.439
51,26,1,33,1,NA,1,1,0.461
51,26,1,34,2,NA,1,1,0.572
51,26,1,35,2,NA,1,0,0.588
51,26,1,36,2,NA,1,1,0.651
51,26,1,37,1,NA,1,1,0.745
51,26,1,38,2,NA,1,1,0.78
51,26,1,39,2,NA,1,1,0.506
51,26,1,40,1,NA,1,1,0.69
51,26,1,41,2,NA,1,1,0.541
51,26,1,42,2,NA,1,1,0.51
51,26,1,43,2,NA,1,1,0.858
51,26,1,44,1,NA,1,1,0.643
51,26,1,45,1,NA,1,1,0.612
51,26,1,46,2,NA,1,1,0.758
51,26,1,47,1,NA,1,1,0.55
51,26,1,48,1,NA,1,1,0.557
51,26,1,49,2,NA,1,1,1.066
51,26,1,50,2,NA,1,1,0.743
51,26,1,51,1,NA,1,1,0.457
51,26,1,52,2,NA,1,1,0.739
51,26,1,53,1,NA,1,1,0.473
51,26,1,54,2,NA,1,1,0.726
51,26,1,55,1,NA,1,1,0.781
51,26,1,56,1,NA,1,1,0.903
51,26,1,57,2,NA,1,1,0.512
51,26,1,58,1,NA,1,1,0.676
51,26,1,59,2,NA,1,1,0.657
51,26,1,60,2,NA,1,1,0.933
51,26,1,61,2,NA,1,1,0.622
51,26,1,62,1,NA,1,1,0.518
51,26,1,63,2,NA,1,1,0.526
51,26,1,64,2,NA,1,1,0.6
51,26,1,65,1,NA,1,1,0.422
51,26,1,66,1,NA,1,1,0.63
51,26,1,67,1,NA,1,1,0.591
51,26,1,68,1,NA,1,1,0.586
51,26,1,69,2,NA,1,1,0.41
51,26,1,70,1,NA,1,1,0.512
51,26,1,71,1,NA,1,1,0.465
51,26,1,72,2,NA,1,1,0.464
51,26,1,73,1,NA,1,1,0.743
51,26,1,74,2,NA,1,1,0.405
51,26,1,75,2,NA,1,1,0.604
51,26,1,76,1,NA,1,1,0.751
51,26,1,77,2,NA,1,1,0.765
51,26,1,78,1,NA,1,1,0.487
51,26,1,79,2,NA,1,1,0.69
51,26,1,80,2,NA,1,1,0.56
51,26,1,81,1,NA,1,1,0.572
51,26,1,82,1,NA,1,1,0.695
51,26,1,83,1,NA,1,1,0.654
51,26,1,84,2,NA,1,1,0.534
51,26,1,85,2,NA,1,1,0.463
51,26,1,86,1,NA,1,1,0.459
51,26,1,87,2,NA,1,1,0.513
51,26,1,88,1,NA,1,0,0.543
51,26,1,89,1,NA,1,1,0.485
51,26,1,90,2,NA,1,1,0.637
51,26,1,91,1,NA,1,1,0.821
51,26,1,92,2,NA,1,1,0.453
51,26,1,93,1,NA,1,1,0.785
51,26,1,94,1,NA,1,1,0.427
51,26,1,95,2,NA,1,1,0.775
51,26,1,96,1,NA,1,1,0.491
51,27,1,4,2,NA,1,1,0.593
51,27,1,5,1,NA,1,1,0.399
51,27,1,6,2,NA,1,1,0.567
51,27,1,7,2,NA,1,1,0.596
51,27,1,8,2,NA,1,1,0.548
51,27,1,9,1,NA,1,1,0.439
51,27,1,10,2,NA,1,1,0.974
51,27,1,11,1,NA,1,1,0.557
51,27,1,12,2,NA,1,1,0.725
51,27,1,13,1,NA,1,1,0.528
51,27,1,14,2,NA,1,1,0.754
51,27,1,15,1,NA,1,1,0.584
51,27,1,16,1,NA,1,1,0.463
51,27,1,17,1,NA,1,1,0.387
51,27,1,18,1,NA,1,1,0.442
51,27,1,19,1,NA,1,1,0.407
51,27,1,20,1,NA,1,1,0.408
51,27,1,21,2,NA,1,1,0.703
51,27,1,22,2,NA,1,1,0.599
51,27,1,23,1,NA,1,1,0.454
51,27,1,24,2,NA,1,1,0.818
51,27,1,25,1,NA,1,1,0.445
51,27,1,26,1,NA,1,1,0.683
51,27,1,27,1,NA,1,1,0.505
51,27,1,28,2,NA,1,1,0.747
51,27,1,29,1,NA,1,1,0.5
51,27,1,30,2,NA,1,1,0.734
51,27,1,31,1,NA,1,1,0.5
51,27,1,32,2,NA,1,1,0.709
51,27,1,33,1,NA,1,1,0.499
51,27,1,34,1,NA,1,1,0.469
51,27,1,35,2,NA,1,1,0.768
51,27,1,36,2,NA,1,1,0.563
51,27,1,37,1,NA,1,1,0.942
51,27,1,38,1,NA,1,1,1.049
51,27,1,39,2,NA,1,1,0.883
51,27,1,40,2,NA,1,1,0.745
51,27,1,41,1,NA,1,1,0.986
51,27,1,42,1,NA,1,1,0.7
51,27,1,43,2,NA,1,1,1.1
51,27,1,44,2,NA,1,1,0.751
51,27,1,45,2,NA,1,1,0.867
51,27,1,46,2,NA,1,1,0.892
51,27,1,47,1,NA,1,1,0.657
51,27,1,48,2,NA,1,1,0.894
51,27,1,49,1,NA,1,1,0.71
51,27,1,50,1,NA,1,1,0.46
51,27,1,51,2,NA,1,1,0.739
51,27,1,52,1,NA,1,1,0.484
51,27,1,53,2,NA,1,1,0.571
51,27,1,54,2,NA,1,1,0.679
51,27,1,55,2,NA,1,1,0.84
51,27,1,56,2,NA,1,1,0.743
51,27,1,57,1,NA,1,1,0.526
51,27,1,58,1,NA,1,1,0.604
51,27,1,59,1,NA,1,1,0.528
51,27,1,60,1,NA,1,1,0.809
51,27,1,61,1,NA,1,1,0.77
51,27,1,62,2,NA,1,1,0.695
51,27,1,63,2,NA,1,1,0.632
51,27,1,64,1,NA,1,1,0.58
51,27,1,65,1,NA,1,1,0.472
51,27,1,66,1,NA,1,1,0.495
51,27,1,67,1,NA,1,0,0.411
51,27,1,68,2,NA,1,1,0.688
51,27,1,69,2,NA,1,1,0.74
51,27,1,70,2,NA,1,1,0.694
51,27,1,71,1,NA,1,1,0.489
51,27,1,72,1,NA,1,1,1.076
51,27,1,73,2,NA,1,1,0.664
51,27,1,74,2,NA,1,1,0.634
51,27,1,75,2,NA,1,1,0.709
51,27,1,76,2,NA,1,1,0.759
51,27,1,77,1,NA,1,1,0.785
51,27,1,78,2,NA,1,1,0.556
51,27,1,79,1,NA,1,1,0.598
51,27,1,80,2,NA,1,1,0.673
51,27,1,81,2,NA,1,1,0.935
51,27,1,82,2,NA,1,1,0.737
51,27,1,83,1,NA,1,1,0.877
51,27,1,84,1,NA,1,1,0.867
51,27,1,85,2,NA,1,1,0.69
51,27,1,86,2,NA,1,1,0.712
51,27,1,87,1,NA,1,1,0.734
51,27,1,88,1,NA,1,1,0.662
51,27,1,89,1,NA,1,1,0.498
51,27,1,90,1,NA,1,1,0.447
51,27,1,91,2,NA,1,1,0.94
51,27,1,92,1,NA,1,1,0.571
51,27,1,93,2,NA,1,1,1.016
51,27,1,94,2,NA,1,1,1.17
51,27,1,95,1,NA,1,1,0.62
51,27,1,96,2,NA,1,1,0.744
51,28,1,4,2,NA,1,1,0.412
51,28,1,5,2,NA,1,1,0.538
51,28,1,6,1,NA,1,1,0.502
51,28,1,7,2,NA,1,1,0.419
51,28,1,8,1,NA,1,1,0.713
51,28,1,9,2,NA,1,1,0.549
51,28,1,10,1,NA,1,1,0.515
51,28,1,11,2,NA,1,1,0.683
51,28,1,12,2,NA,1,1,0.667
51,28,1,13,1,NA,1,1,0.513
51,28,1,14,1,NA,1,1,0.56
51,28,1,15,2,NA,1,1,0.822
51,28,1,16,1,NA,1,1,0.547
51,28,1,17,1,NA,1,1,0.522
51,28,1,18,2,NA,1,1,0.729
51,28,1,19,1,NA,1,1,0.535
51,28,1,20,2,NA,1,1,0.834
51,28,1,21,2,NA,1,1,0.823
51,28,1,22,2,NA,1,1,0.759
51,28,1,23,1,NA,1,1,0.59
51,28,1,24,1,NA,1,1,0.593
51,28,1,25,1,NA,1,1,0.606
51,28,1,26,1,NA,1,1,0.605
51,28,1,27,1,NA,1,1,0.486
51,28,1,28,2,NA,1,1,0.462
51,28,1,29,2,NA,1,1,0.741
51,28,1,30,2,NA,1,1,0.67
51,28,1,31,2,NA,1,1,0.572
51,28,1,32,2,NA,1,1,0.687
51,28,1,33,1,NA,1,1,0.625
51,28,1,34,1,NA,1,1,0.573
51,28,1,35,1,NA,1,1,0.652
51,28,1,36,2,NA,1,1,0.572
51,28,1,37,1,NA,1,1,0.611
51,28,1,38,1,NA,1,1,0.948
51,28,1,39,1,NA,1,1,0.667
51,28,1,40,1,NA,1,1,0.456
51,28,1,41,1,NA,1,1,0.716
51,28,1,42,2,NA,1,1,0.689
51,28,1,43,1,NA,1,1,0.586
51,28,1,44,1,NA,1,1,0.818
51,28,1,45,1,NA,1,1,0.666
51,28,1,46,1,NA,1,1,0.571
51,28,1,47,2,NA,1,1,0.495
51,28,1,48,1,NA,1,1,0.685
51,28,1,49,2,NA,1,1,0.573
51,28,1,50,1,NA,1,1,0.525
51,28,1,51,2,NA,1,1,0.69
51,28,1,52,2,NA,1,1,0.539
51,28,1,53,2,NA,1,1,0.802
51,28,1,54,2,NA,1,1,0.855
51,28,1,55,1,NA,1,1,0.624
51,28,1,56,2,NA,1,1,0.6
51,28,1,57,1,NA,1,1,0.566
51,28,1,58,1,NA,1,1,0.565
51,28,1,59,1,NA,1,1,0.717
51,28,1,60,2,NA,1,1,0.709
51,28,1,61,2,NA,1,1,0.605
51,28,1,62,1,NA,1,1,0.886
51,28,1,63,2,NA,1,1,0.893
51,28,1,64,1,NA,1,1,0.655
51,28,1,65,2,NA,1,1,0.897
51,28,1,66,1,NA,1,1,0.554
51,28,1,67,1,NA,1,1,0.586
51,28,1,68,2,NA,1,1,0.713
51,28,1,69,1,NA,1,1,0.608
51,28,1,70,2,NA,1,1,0.464
51,28,1,71,2,NA,1,1,0.846
51,28,1,72,1,NA,1,1,0.726
51,28,1,73,2,NA,1,1,0.618
51,28,1,74,2,NA,1,1,0.466
51,28,1,75,1,NA,1,1,0.506
51,28,1,76,2,NA,1,1,0.61
51,28,1,77,2,NA,1,1,0.769
51,28,1,78,1,NA,1,1,0.561
51,28,1,79,2,NA,1,1,0.469
51,28,1,80,1,NA,1,1,0.572
51,28,1,81,2,NA,1,1,0.59
51,28,1,82,2,NA,1,1,0.629
51,28,1,83,2,NA,1,1,0.52
51,28,1,84,2,NA,1,1,0.801
51,28,1,85,1,NA,1,1,0.526
51,28,1,86,2,NA,1,1,0.694
51,28,1,87,1,NA,1,1,0.596
51,28,1,88,1,NA,1,1,0.711
51,28,1,89,1,NA,1,1,0.612
51,28,1,90,1,NA,1,1,0.691
51,28,1,91,2,NA,1,1,0.684
51,28,1,92,1,NA,1,1,0.517
51,28,1,93,2,NA,1,1,0.5
51,28,1,94,2,NA,1,1,0.686
51,28,1,95,2,NA,1,1,0.701
51,28,1,96,2,NA,1,1,0.652
51,29,1,4,2,NA,1,1,0.543
51,29,1,5,2,NA,1,0,0.656
51,29,1,6,2,NA,1,1,0.74
51,29,1,7,1,NA,1,1,0.631
51,29,1,8,2,NA,1,1,0.805
51,29,1,9,1,NA,1,1,0.545
51,29,1,10,1,NA,1,0,0.705
51,29,1,11,2,NA,1,0,1.221
51,29,1,12,1,NA,1,1,0.702
51,29,1,13,1,NA,1,1,0.513
51,29,1,14,1,NA,1,1,0.403
51,29,1,15,2,NA,1,1,0.761
51,29,1,16,1,NA,1,0,0.9
51,29,1,17,2,NA,1,1,1.184
51,29,1,18,1,NA,1,1,0.616
51,29,1,19,1,NA,1,1,0.521
51,29,1,20,2,NA,1,1,0.921
51,29,1,21,1,NA,1,1,0.561
51,29,1,22,1,NA,1,1,0.672
51,29,1,23,1,NA,1,1,0.769
51,29,1,24,1,NA,1,1,0.74
51,29,1,25,2,NA,1,1,0.763
51,29,1,26,1,NA,1,1,0.768
51,29,1,27,2,NA,1,1,0.624
51,29,1,28,1,NA,1,1,0.587
51,29,1,29,1,NA,1,1,0.543
51,29,1,30,2,NA,1,1,0.759
51,29,1,31,2,NA,1,1,0.823
51,29,1,32,1,NA,1,1,0.801
51,29,1,33,2,NA,1,1,0.74
51,29,1,34,1,NA,1,1,0.609
51,29,1,35,2,NA,1,0,0.509
51,29,1,36,2,NA,1,1,0.886
51,29,1,37,1,NA,1,1,0.504
51,29,1,38,1,NA,1,1,0.586
51,29,1,39,2,NA,1,1,1.024
51,29,1,40,1,NA,1,1,0.648
51,29,1,41,2,NA,1,1,0.501
51,29,1,42,1,NA,1,1,0.653
51,29,1,43,2,NA,1,1,0.523
51,29,1,44,2,NA,1,1,0.844
51,29,1,45,1,NA,1,1,0.704
51,29,1,46,2,NA,1,1,0.758
51,29,1,47,1,NA,1,1,0.701
51,29,1,48,2,NA,1,0,0.984
51,29,1,49,2,NA,1,1,0.664
51,29,1,50,2,NA,1,1,0.524
51,29,1,51,1,NA,1,1,0.648
51,29,1,52,2,NA,1,1,0.797
51,29,1,53,1,NA,1,1,1.182
51,29,1,54,1,NA,1,1,0.591
51,29,1,55,2,NA,1,1,0.553
51,29,1,56,1,NA,1,1,0.543
51,29,1,57,1,NA,1,1,0.676
51,29,1,58,1,NA,1,1,0.701
51,29,1,59,1,NA,1,1,0.821
51,29,1,60,1,NA,1,1,0.615
51,29,1,61,1,NA,1,1,0.666
51,29,1,62,2,NA,1,0,1.093
51,29,1,63,2,NA,1,0,0.747
51,29,1,64,2,NA,1,1,0.634
51,29,1,65,2,NA,1,1,0.802
51,29,1,66,2,NA,1,1,0.768
51,29,1,67,2,NA,1,1,0.813
51,29,1,68,1,NA,1,1,0.438
51,29,1,69,2,NA,1,1,0.9
51,29,1,70,1,NA,1,1,0.671
51,29,1,71,2,NA,1,1,0.942
51,29,1,72,2,NA,1,1,1.072
51,29,1,73,2,NA,1,1,0.855
51,29,1,74,1,NA,1,1,0.671
51,29,1,75,1,NA,1,1,0.629
51,29,1,76,1,NA,1,1,1.211
51,29,1,77,1,NA,1,1,0.581
51,29,1,78,1,NA,1,1,0.479
51,29,1,79,1,NA,1,1,0.773
51,29,1,80,2,NA,1,0,0.753
51,29,1,81,1,NA,1,1,0.521
51,29,1,82,2,NA,1,0,0.763
51,29,1,83,2,NA,1,1,0.846
51,29,1,84,2,NA,1,1,1.051
51,29,1,85,2,NA,1,1,0.674
51,29,1,86,1,NA,1,1,0.687
51,29,1,87,1,NA,1,1,0.566
51,29,1,88,1,NA,1,1,0.933
51,29,1,89,2,NA,1,1,0.844
51,29,1,90,2,NA,1,1,0.694
51,29,1,91,2,NA,1,1,0.781
51,29,1,92,1,NA,1,1,0.631
51,29,1,93,2,NA,1,1,0.934
51,29,1,94,1,NA,1,1,0.806
51,29,1,95,2,NA,1,1,0.918
51,29,1,96,2,NA,1,1,0.847
51,30,1,4,1,NA,1,1,0.415
51,30,1,5,2,NA,1,1,0.533
51,30,1,6,2,NA,1,1,0.757
51,30,1,7,1,NA,1,1,0.7
51,30,1,8,1,NA,1,1,0.706
51,30,1,9,2,NA,1,1,0.813
51,30,1,10,2,NA,1,1,0.444
51,30,1,11,2,NA,1,1,0.702
51,30,1,12,2,NA,1,1,1.116
51,30,1,13,1,NA,1,1,0.502
51,30,1,14,2,NA,1,1,0.676
51,30,1,15,2,NA,1,1,0.575
51,30,1,16,2,NA,1,1,0.728
51,30,1,17,2,NA,1,1,0.748
51,30,1,18,1,NA,1,1,0.551
51,30,1,19,2,NA,1,1,0.754
51,30,1,20,2,NA,1,1,1.018
51,30,1,21,1,NA,1,1,0.758
51,30,1,22,2,NA,1,1,0.682
51,30,1,23,1,NA,1,1,0.734
51,30,1,24,2,NA,1,1,1.048
51,30,1,25,1,NA,1,1,0.697
51,30,1,26,1,NA,1,1,0.884
51,30,1,27,1,NA,1,1,0.594
51,30,1,28,2,NA,1,1,0.758
51,30,1,29,1,NA,1,1,0.548
51,30,1,30,2,NA,1,1,0.682
51,30,1,31,1,NA,1,1,0.496
51,30,1,32,1,NA,1,1,0.487
51,30,1,33,2,NA,1,1,0.729
51,30,1,34,1,NA,1,1,0.971
51,30,1,35,2,NA,1,1,0.763
51,30,1,36,1,NA,1,1,0.563
51,30,1,37,1,NA,1,1,0.392
51,30,1,38,1,NA,1,1,0.609
51,30,1,39,1,NA,1,1,0.484
51,30,1,40,2,NA,1,1,0.881
51,30,1,41,2,NA,1,1,1.003
51,30,1,42,1,NA,1,1,1.034
51,30,1,43,2,NA,1,1,0.657
51,30,1,44,1,NA,1,1,0.512
51,30,1,45,2,NA,1,1,0.745
51,30,1,46,2,NA,1,1,0.75
51,30,1,47,1,NA,1,1,0.642
51,30,1,48,2,NA,1,1,0.687
51,30,1,49,2,NA,1,1,0.887
51,30,1,50,2,NA,1,1,0.864
51,30,1,51,2,NA,1,1,0.72
51,30,1,52,2,NA,1,1,0.92
51,30,1,53,1,NA,1,1,0.973
51,30,1,54,1,NA,1,1,0.565
51,30,1,55,1,NA,1,1,0.825
51,30,1,56,2,NA,1,1,0.976
51,30,1,57,2,NA,1,1,0.616
51,30,1,58,1,NA,1,1,0.675
51,30,1,59,1,NA,1,1,0.918
51,30,1,60,1,NA,1,1,0.776
51,30,1,61,1,NA,1,1,0.393
51,30,1,62,2,NA,1,1,0.594
51,30,1,63,1,NA,1,1,0.407
51,30,1,64,2,NA,1,1,0.901
51,30,1,65,1,NA,1,1,0.513
51,30,1,66,2,NA,1,1,0.407
51,30,1,67,1,NA,1,1,0.644
51,30,1,68,2,NA,1,1,0.574
51,30,1,69,1,NA,1,1,0.407
51,30,1,70,1,NA,1,1,0.538
51,30,1,71,2,NA,1,1,0.825
51,30,1,72,2,NA,1,1,0.672
51,30,1,73,2,NA,1,1,1.006
51,30,1,74,1,NA,1,1,0.452
51,30,1,75,2,NA,1,1,0.488
51,30,1,76,2,NA,1,1,0.68
51,30,1,77,2,NA,1,1,0.656
51,30,1,78,1,NA,1,1,0.755
51,30,1,79,1,NA,1,1,0.538
51,30,1,80,2,NA,1,1,0.838
51,30,1,81,1,NA,1,1,0.554
51,30,1,82,1,NA,1,1,0.726
51,30,1,83,1,NA,1,1,0.553
51,30,1,84,1,NA,1,1,0.598
51,30,1,85,1,NA,1,1,0.534
51,30,1,86,1,NA,1,1,0.423
51,30,1,87,2,NA,1,1,0.701
51,30,1,88,2,NA,1,1,0.754
51,30,1,89,1,NA,1,1,0.578
51,30,1,90,1,NA,1,1,0.531
51,30,1,91,2,NA,1,1,1.025
51,30,1,92,1,NA,1,1,0.542
51,30,1,93,1,NA,1,1,0.62
51,30,1,94,2,NA,1,1,0.667
51,30,1,95,1,NA,1,1,0.481
51,30,1,96,1,NA,1,1,0.596
51,31,1,4,2,NA,1,1,0.735
51,31,1,5,1,NA,1,1,0.52
51,31,1,6,1,NA,1,1,0.713
51,31,1,7,2,NA,1,1,0.993
51,31,1,8,1,NA,1,1,0.707
51,31,1,9,1,NA,1,1,0.735
51,31,1,10,2,NA,1,1,1.102
51,31,1,11,2,NA,1,1,0.934
51,31,1,12,2,NA,1,1,1.136
51,31,1,13,2,NA,1,1,0.916
51,31,1,14,2,NA,1,1,0.752
51,31,1,15,1,NA,1,1,0.743
51,31,1,16,1,NA,1,1,0.949
51,31,1,18,2,NA,1,1,0.69
51,31,1,19,1,NA,1,1,0.683
51,31,1,20,1,NA,1,1,0.823
51,31,1,21,1,NA,1,1,0.678
51,31,1,22,2,NA,1,1,0.834
51,31,1,23,2,NA,1,1,0.794
51,31,1,24,2,NA,1,1,0.659
51,31,1,25,2,NA,1,1,0.642
51,31,1,26,2,NA,1,1,0.837
51,31,1,27,1,NA,1,1,0.526
51,31,1,28,2,NA,1,0,0.731
51,31,1,29,1,NA,1,1,0.659
51,31,1,30,2,NA,1,1,0.96
51,31,1,31,2,NA,1,1,0.874
51,31,1,32,1,NA,1,1,0.489
51,31,1,33,1,NA,1,1,1.017
51,31,1,34,2,NA,1,1,0.772
51,31,1,35,1,NA,1,1,0.673
51,31,1,36,1,NA,1,1,0.834
51,31,1,37,2,NA,1,1,1.176
51,31,1,38,2,NA,1,1,0.626
51,31,1,39,2,NA,1,1,0.947
51,31,1,40,2,NA,1,1,0.992
51,31,1,41,1,NA,1,1,0.672
51,31,1,42,2,NA,1,1,0.835
51,31,1,43,1,NA,1,1,0.702
51,31,1,44,1,NA,1,1,0.578
51,31,1,45,1,NA,1,1,0.597
51,31,1,46,1,NA,1,1,0.563
51,31,1,47,2,NA,1,1,0.617
51,31,1,48,2,NA,1,1,1.07
51,31,1,49,1,NA,1,1,0.822
51,31,1,50,1,NA,1,1,0.519
51,31,1,51,1,NA,1,1,0.591
51,31,1,52,1,NA,1,1,0.512
51,31,1,53,1,NA,1,1,0.923
51,31,1,54,2,NA,1,1,0.699
51,31,1,55,1,NA,1,1,0.707
51,31,1,56,2,NA,1,1,0.595
51,31,1,57,2,NA,1,1,0.906
51,31,1,58,1,NA,1,1,0.783
51,31,1,59,2,NA,1,1,0.588
51,31,1,60,2,NA,1,0,0.696
51,31,1,61,1,NA,1,1,0.55
51,31,1,62,2,NA,1,1,0.948
51,31,1,63,1,NA,1,1,0.56
51,31,1,64,2,NA,1,1,0.523
51,31,1,65,1,NA,1,1,0.751
51,31,1,66,1,NA,1,1,1.047
51,31,1,67,2,NA,1,1,1.278
51,31,1,68,1,NA,1,1,0.614
51,31,1,69,2,NA,1,1,0.669
51,31,1,70,1,NA,1,0,0.516
51,31,1,71,1,NA,1,1,0.684
51,31,1,72,2,NA,1,0,0.928
51,31,1,73,1,NA,1,1,0.821
51,31,1,74,1,NA,1,1,1.096
51,31,1,75,1,NA,1,1,1.397
51,31,1,76,2,NA,1,1,1.074
51,31,1,77,1,NA,1,1,0.637
51,31,1,78,2,NA,1,1,1.085
51,31,1,79,1,NA,1,1,0.543
51,31,1,80,1,NA,1,1,0.471
51,31,1,81,1,NA,1,1,0.55
51,31,1,82,1,NA,1,1,0.627
51,31,1,83,2,NA,1,1,0.817
51,31,1,84,2,NA,1,1,0.958
51,31,1,85,1,NA,1,1,0.446
51,31,1,86,1,NA,1,1,0.45
51,31,1,87,2,NA,1,1,0.737
51,31,1,88,2,NA,1,1,0.554
51,31,1,89,1,NA,1,1,0.556
51,31,1,90,2,NA,1,1,0.8
51,31,1,91,2,NA,1,1,1.214
51,31,1,92,2,NA,1,1,0.809
51,31,1,93,2,NA,1,1,0.795
51,31,1,94,1,NA,1,1,0.541
51,31,1,95,2,NA,1,1,0.631
51,31,1,96,2,NA,1,1,0.61
51,32,1,4,1,NA,1,1,0.641
51,32,1,5,1,NA,1,1,0.656
51,32,1,6,2,NA,1,1,0.632
51,32,1,7,2,NA,1,1,0.647
51,32,1,8,1,NA,1,1,0.623
51,32,1,9,2,NA,1,1,0.861
51,32,1,10,1,NA,1,1,0.533
51,32,1,11,1,NA,1,1,0.709
51,32,1,12,1,NA,1,1,0.509
51,32,1,13,2,NA,1,1,0.517
51,32,1,14,2,NA,1,1,0.828
51,32,1,15,2,NA,1,1,0.956
51,32,1,16,2,NA,1,1,0.762
51,32,1,17,2,NA,1,1,0.49
51,32,1,18,1,NA,1,1,0.737
51,32,1,19,1,NA,1,1,0.673
51,32,1,20,1,NA,1,1,0.561
51,32,1,21,2,NA,1,1,0.712
51,32,1,22,1,NA,1,1,0.721
51,32,1,23,1,NA,1,1,0.503
51,32,1,24,1,NA,1,1,0.502
51,32,1,25,2,NA,1,1,0.485
51,32,1,26,1,NA,1,1,0.524
51,32,1,27,2,NA,1,1,0.755
51,32,1,28,2,NA,1,1,0.586
51,32,1,29,1,NA,1,1,0.698
51,32,1,30,1,NA,1,1,0.627
51,32,1,31,2,NA,1,1,0.49
51,32,1,32,2,NA,1,1,0.466
51,32,1,33,1,NA,1,1,0.585
51,32,1,34,2,NA,1,1,0.77
51,32,1,35,2,NA,1,1,0.786
51,32,1,36,2,NA,1,1,0.81
51,32,1,37,1,NA,1,1,0.563
51,32,1,38,2,NA,1,1,1.051
51,32,1,39,1,NA,1,1,0.562
51,32,1,40,2,NA,1,1,0.639
51,32,1,41,2,NA,1,1,0.804
51,32,1,42,1,NA,1,1,0.531
51,32,1,43,1,NA,1,1,0.555
51,32,1,44,2,NA,1,1,0.723
51,32,1,45,2,NA,1,1,0.626
51,32,1,46,1,NA,1,1,0.562
51,32,1,47,1,NA,1,1,0.515
51,32,1,48,2,NA,1,1,0.706
51,32,1,49,1,NA,1,1,0.666
51,32,1,50,1,NA,1,1,0.443
51,32,1,51,1,NA,1,1,0.466
51,32,1,52,2,NA,1,1,0.619
51,32,1,53,1,NA,1,1,0.474
51,32,1,54,2,NA,1,1,0.585
51,32,1,55,1,NA,1,1,0.577
51,32,1,56,2,NA,1,1,0.992
51,32,1,57,2,NA,1,1,1.144
51,32,1,58,2,NA,1,1,0.473
51,32,1,59,2,NA,1,1,0.657
51,32,1,60,2,NA,1,1,0.591
51,32,1,61,1,NA,1,1,0.639
51,32,1,62,1,NA,1,1,0.469
51,32,1,63,1,NA,1,1,0.645
51,32,1,64,2,NA,1,1,0.757
51,32,1,65,2,NA,1,1,1.078
51,32,1,66,2,NA,1,1,0.438
51,32,1,67,1,NA,1,1,0.43
51,32,1,68,1,NA,1,1,0.614
51,32,1,69,1,NA,1,1,0.549
51,32,1,70,2,NA,1,1,0.653
51,32,1,71,2,NA,1,1,1.085
51,32,1,72,1,NA,1,1,0.669
51,32,1,73,1,NA,1,1,0.661
51,32,1,74,1,NA,1,1,0.453
51,32,1,75,1,NA,1,1,0.531
51,32,1,76,2,NA,1,1,0.61
51,32,1,77,1,NA,1,1,0.554
51,32,1,78,2,NA,1,1,0.881
51,32,1,79,1,NA,1,1,0.456
51,32,1,80,1,NA,1,1,0.512
51,32,1,81,2,NA,1,1,0.424
51,32,1,82,2,NA,1,1,0.68
51,32,1,83,2,NA,1,1,0.712
51,32,1,84,2,NA,1,1,0.752
51,32,1,85,1,NA,1,1,0.615
51,32,1,86,1,NA,1,1,0.534
51,32,1,87,1,NA,1,1,0.518
51,32,1,88,1,NA,1,1,0.509
51,32,1,89,2,NA,1,1,0.684
51,32,1,90,2,NA,1,1,0.772
51,32,1,91,2,NA,1,1,0.54
51,32,1,92,2,NA,1,1,0.612
51,32,1,93,1,NA,1,1,0.546
51,32,1,94,1,NA,1,1,0.417
51,32,1,95,1,NA,1,1,0.447
51,32,1,96,2,NA,1,1,1
51,33,1,4,1,NA,1,1,0.792
51,33,1,5,2,NA,1,1,1.34
51,33,1,6,2,NA,1,1,0.89
51,33,1,7,1,NA,1,1,0.966
51,33,1,8,1,NA,1,1,0.712
51,33,1,9,1,NA,1,1,0.811
51,33,1,10,1,NA,1,1,0.94
51,33,1,11,1,NA,1,1,1.478
51,33,1,12,2,NA,1,1,0.928
51,33,1,13,2,NA,1,0,0.868
51,33,1,14,1,NA,1,1,0.828
51,33,1,15,2,NA,1,1,1.188
51,33,1,16,2,NA,1,1,1.176
51,33,1,17,2,NA,1,1,0.836
51,33,1,19,1,NA,1,1,1.135
51,33,1,20,1,NA,1,1,1.122
51,33,1,21,1,NA,1,1,1.212
51,33,1,22,1,NA,1,1,0.735
51,33,1,23,2,NA,1,1,0.781
51,33,1,24,1,NA,1,1,1.087
51,33,1,25,1,NA,1,1,0.83
51,33,1,26,1,NA,1,1,0.709
51,33,1,27,1,NA,1,1,0.708
51,33,1,28,1,NA,1,1,1.027
51,33,1,29,2,NA,1,1,1.132
51,33,1,30,2,NA,1,1,1.398
51,33,1,31,1,NA,1,1,0.752
51,33,1,32,1,NA,1,1,1.009
51,33,1,33,1,NA,1,1,1.041
51,33,1,34,2,NA,1,1,0.975
51,33,1,35,1,NA,1,1,0.981
51,33,1,36,1,NA,1,1,1.06
51,33,1,37,2,NA,1,1,0.903
51,33,1,38,2,NA,1,1,0.838
51,33,1,39,1,NA,1,1,0.928
51,33,1,40,2,NA,1,1,1.178
51,33,1,41,2,NA,1,1,0.953
51,33,1,42,1,NA,1,1,0.702
51,33,1,43,2,NA,1,1,0.832
51,33,1,44,2,NA,1,1,0.786
51,33,1,45,2,NA,1,1,1.161
51,33,1,46,2,NA,1,1,1.088
51,33,1,47,2,NA,1,1,1.039
51,33,1,48,1,NA,1,1,0.894
51,33,1,49,2,NA,1,1,0.977
51,33,1,50,2,NA,1,1,1.106
51,33,1,51,2,NA,1,1,0.947
51,33,1,52,2,NA,1,1,0.818
51,33,1,53,2,NA,1,0,0.923
51,33,1,54,2,NA,1,1,1.036
51,33,1,55,2,NA,1,1,1.292
51,33,1,56,1,NA,1,1,0.849
51,33,1,57,1,NA,1,1,1.108
51,33,1,58,2,NA,1,1,0.898
51,33,1,59,1,NA,1,1,0.646
51,33,1,60,1,NA,1,1,0.742
51,33,1,61,1,NA,1,1,0.743
51,33,1,62,2,NA,1,1,1.047
51,33,1,63,2,NA,1,1,1.058
51,33,1,64,2,NA,1,1,0.811
51,33,1,65,2,NA,1,1,0.864
51,33,1,66,2,NA,1,1,1.333
51,33,1,67,1,NA,1,1,0.816
51,33,1,68,2,NA,1,1,0.888
51,33,1,69,2,NA,1,1,1.126
51,33,1,70,1,NA,1,1,1.269
51,33,1,71,1,NA,1,1,0.949
51,33,1,72,1,NA,1,1,1.079
51,33,1,73,2,NA,1,1,1.143
51,33,1,74,1,NA,1,1,0.78
51,33,1,75,1,NA,1,1,0.751
51,33,1,76,1,NA,1,1,0.957
51,33,1,77,1,NA,1,1,0.845
51,33,1,78,2,NA,1,1,1.029
51,33,1,79,1,NA,1,1,0.959
51,33,1,80,2,NA,1,0,1.418
51,33,1,81,2,NA,1,1,0.863
51,33,1,82,1,NA,1,1,0.962
51,33,1,83,2,NA,1,1,0.777
51,33,1,85,1,NA,1,1,0.978
51,33,1,86,2,NA,1,1,0.878
51,33,1,87,2,NA,1,1,0.87
51,33,1,88,1,NA,1,1,0.74
51,33,1,89,2,NA,1,1,0.983
51,33,1,90,1,NA,1,1,0.751
51,33,1,91,1,NA,1,1,1.079
51,33,1,93,1,NA,1,1,0.68
51,33,1,94,1,NA,1,1,0.936
51,33,1,96,1,NA,1,1,1.01
51,34,1,4,1,NA,1,1,0.43
51,34,1,5,1,NA,1,1,0.666
51,34,1,6,2,NA,1,1,0.904
51,34,1,7,1,NA,1,1,1.193
51,34,1,8,1,NA,1,1,0.405
51,34,1,9,2,NA,1,1,0.771
51,34,1,10,2,NA,1,1,0.952
51,34,1,11,1,NA,1,1,0.623
51,34,1,12,2,NA,1,1,1.003
51,34,1,13,1,NA,1,1,0.608
51,34,1,14,1,NA,1,1,0.652
51,34,1,15,2,NA,1,0,0.616
51,34,1,16,1,NA,1,1,0.615
51,34,1,17,1,NA,1,1,0.515
51,34,1,18,2,NA,1,1,0.483
51,34,1,19,1,NA,1,1,0.904
51,34,1,20,1,NA,1,1,0.341
51,34,1,21,2,NA,1,1,1.237
51,34,1,22,1,NA,1,1,0.673
51,34,1,23,1,NA,1,1,1.04
51,34,1,24,2,NA,1,1,0.736
51,34,1,25,2,NA,1,1,0.653
51,34,1,26,2,NA,1,1,1.116
51,34,1,27,2,NA,1,1,0.69
51,34,1,28,2,NA,1,1,1.002
51,34,1,29,2,NA,1,1,0.705
51,34,1,30,2,NA,1,1,1.203
51,34,1,31,2,NA,1,1,1.078
51,34,1,32,2,NA,1,1,0.758
51,34,1,33,1,NA,1,1,0.397
51,34,1,34,2,NA,1,1,0.663
51,34,1,35,2,NA,1,1,0.699
51,34,1,36,2,NA,1,1,0.615
51,34,1,37,1,NA,1,1,1.025
51,34,1,38,2,NA,1,0,1.404
51,34,1,39,1,NA,1,1,0.778
51,34,1,40,1,NA,1,1,0.835
51,34,1,41,2,NA,1,1,0.561
51,34,1,42,2,NA,1,1,0.78
51,34,1,43,1,NA,1,1,0.851
51,34,1,44,1,NA,1,1,0.706
51,34,1,45,2,NA,1,0,1.103
51,34,1,46,2,NA,1,1,1.003
51,34,1,47,2,NA,1,1,0.794
51,34,1,48,1,NA,1,1,0.738
51,34,1,49,1,NA,1,1,0.751
51,34,1,51,1,NA,1,1,0.611
51,34,1,52,1,NA,1,1,0.588
51,34,1,53,1,NA,1,1,0.68
51,34,1,54,2,NA,1,1,1.03
51,34,1,55,1,NA,1,1,0.555
51,34,1,56,1,NA,1,1,0.788
51,34,1,57,2,NA,1,1,0.431
51,34,1,58,2,NA,1,1,0.569
51,34,1,59,2,NA,1,1,0.738
51,34,1,60,2,NA,1,1,0.658
51,34,1,61,1,NA,1,1,0.642
51,34,1,62,1,NA,1,1,0.522
51,34,1,63,1,NA,1,0,0.544
51,34,1,64,2,NA,1,1,0.722
51,34,1,65,2,NA,1,1,0.723
51,34,1,66,2,NA,1,1,1.252
51,34,1,67,2,NA,1,1,0.998
51,34,1,68,1,NA,1,1,0.5
51,34,1,69,1,NA,1,1,0.532
51,34,1,70,1,NA,1,1,0.575
51,34,1,71,1,NA,1,1,0.472
51,34,1,72,1,NA,1,1,0.575
51,34,1,73,1,NA,1,1,0.423
51,34,1,74,1,NA,1,1,0.442
51,34,1,75,1,NA,1,1,0.38
51,34,1,76,2,NA,1,1,0.93
51,34,1,77,2,NA,1,1,0.795
51,34,1,78,1,NA,1,1,0.579
51,34,1,79,2,NA,1,1,0.755
51,34,1,80,2,NA,1,1,1.186
51,34,1,81,1,NA,1,1,0.58
51,34,1,82,2,NA,1,1,0.614
51,34,1,83,1,NA,1,1,0.548
51,34,1,84,1,NA,1,1,0.525
51,34,1,85,2,NA,1,1,0.894
51,34,1,86,1,NA,1,1,0.684
51,34,1,87,2,NA,1,0,1.104
51,34,1,88,2,NA,1,1,0.699
51,34,1,89,2,NA,1,1,0.397
51,34,1,90,2,NA,1,1,0.677
51,34,1,91,1,NA,1,1,0.429
51,34,1,92,2,NA,1,1,0.501
51,34,1,93,2,NA,1,1,0.522
51,34,1,94,2,NA,1,1,0.602
51,34,1,95,1,NA,1,1,0.485
51,34,1,96,1,NA,1,1,0.546
51,35,1,4,1,NA,1,1,0.688
51,35,1,5,1,NA,1,1,0.575
51,35,1,6,1,NA,1,1,0.555
51,35,1,7,1,NA,1,1,0.543
51,35,1,8,1,NA,1,1,0.751
51,35,1,9,2,NA,1,0,0.606
51,35,1,10,2,NA,1,1,0.828
51,35,1,11,2,NA,1,1,0.794
51,35,1,12,2,NA,1,1,0.686
51,35,1,13,1,NA,1,1,0.681
51,35,1,14,1,NA,1,1,0.609
51,35,1,15,2,NA,1,1,0.666
51,35,1,16,2,NA,1,1,0.665
51,35,1,17,1,NA,1,1,0.632
51,35,1,18,1,NA,1,1,0.506
51,35,1,19,1,NA,1,1,0.498
51,35,1,20,2,NA,1,1,0.863
51,35,1,21,2,NA,1,1,0.635
51,35,1,22,1,NA,1,1,0.908
51,35,1,23,1,NA,1,1,0.892
51,35,1,24,1,NA,1,1,0.651
51,35,1,25,2,NA,1,1,0.73
51,35,1,26,2,NA,1,1,1.066
51,35,1,27,2,NA,1,1,0.912
51,35,1,28,1,NA,1,1,0.934
51,35,1,29,2,NA,1,1,0.589
51,35,1,30,2,NA,1,1,0.775
51,35,1,31,2,NA,1,1,1.005
51,35,1,32,2,NA,1,1,0.802
51,35,1,33,2,NA,1,1,0.743
51,35,1,34,1,NA,1,1,0.717
51,35,1,35,1,NA,1,1,0.664
51,35,1,36,2,NA,1,1,0.951
51,35,1,37,2,NA,1,1,0.63
51,35,1,38,2,NA,1,1,0.599
51,35,1,39,1,NA,1,1,0.53
51,35,1,40,2,NA,1,1,0.766
51,35,1,41,2,NA,1,1,0.53
51,35,1,42,2,NA,1,1,0.68
51,35,1,43,2,NA,1,1,0.77
51,35,1,44,2,NA,1,1,0.661
51,35,1,45,2,NA,1,1,0.947
51,35,1,46,2,NA,1,1,0.485
51,35,1,47,1,NA,1,1,0.867
51,35,1,48,2,NA,1,1,0.82
51,35,1,49,1,NA,1,1,0.459
51,35,1,50,1,NA,1,1,0.679
51,35,1,51,2,NA,1,1,0.745
51,35,1,52,2,NA,1,1,0.525
51,35,1,53,2,NA,1,1,0.463
51,35,1,54,2,NA,1,1,0.891
51,35,1,55,1,NA,1,1,0.645
51,35,1,56,1,NA,1,1,0.78
51,35,1,57,1,NA,1,1,0.617
51,35,1,58,1,NA,1,0,0.725
51,35,1,59,2,NA,1,1,0.856
51,35,1,60,2,NA,1,1,0.578
51,35,1,61,1,NA,1,1,0.763
51,35,1,62,2,NA,1,1,1.063
51,35,1,63,1,NA,1,1,1.011
51,35,1,64,2,NA,1,1,0.705
51,35,1,65,1,NA,1,1,0.761
51,35,1,66,1,NA,1,1,0.617
51,35,1,67,2,NA,1,1,0.67
51,35,1,68,1,NA,1,1,0.769
51,35,1,69,1,NA,1,1,0.523
51,35,1,70,1,NA,1,1,0.543
51,35,1,71,1,NA,1,1,0.537
51,35,1,72,1,NA,1,1,0.443
51,35,1,73,1,NA,1,1,1.225
51,35,1,74,2,NA,1,1,0.668
51,35,1,75,1,NA,1,1,0.582
51,35,1,76,2,NA,1,1,0.775
51,35,1,77,2,NA,1,1,0.785
51,35,1,78,2,NA,1,1,0.652
51,35,1,79,1,NA,1,1,0.806
51,35,1,80,1,NA,1,0,0.656
51,35,1,81,2,NA,1,1,0.771
51,35,1,82,2,NA,1,1,0.969
51,35,1,83,1,NA,1,1,0.714
51,35,1,84,1,NA,1,1,0.745
51,35,1,85,1,NA,1,1,0.904
51,35,1,86,1,NA,1,1,1.014
51,35,1,87,1,NA,1,1,0.512
51,35,1,88,2,NA,1,1,0.721
51,35,1,89,1,NA,1,1,0.657
51,35,1,90,2,NA,1,1,0.673
51,35,1,91,2,NA,1,1,0.942
51,35,1,92,2,NA,1,1,0.829
51,35,1,93,1,NA,1,1,0.746
51,35,1,94,1,NA,1,1,0.725
51,35,1,95,2,NA,1,1,0.848
51,35,1,96,1,NA,1,1,0.708
51,36,1,4,1,NA,1,1,0.4
51,36,1,5,2,NA,1,1,0.908
51,36,1,6,2,NA,1,1,0.659
51,36,1,7,1,NA,1,1,0.372
51,36,1,8,2,NA,1,1,0.466
51,36,1,9,2,NA,1,1,0.724
51,36,1,10,2,NA,1,1,0.449
51,36,1,11,2,NA,1,1,0.566
51,36,1,12,2,NA,1,1,0.581
51,36,1,13,2,NA,1,1,0.665
51,36,1,14,1,NA,1,1,0.574
51,36,1,15,1,NA,1,0,0.819
51,36,1,16,1,NA,1,1,0.601
51,36,1,17,2,NA,1,1,0.697
51,36,1,18,1,NA,1,1,0.454
51,36,1,19,2,NA,1,0,0.772
51,36,1,20,1,NA,1,1,0.441
51,36,1,21,1,NA,1,1,0.693
51,36,1,22,1,NA,1,1,0.644
51,36,1,23,1,NA,1,1,0.362
51,36,1,24,1,NA,1,1,1.013
51,36,1,25,1,NA,1,1,0.57
51,36,1,26,2,NA,1,1,0.953
51,36,1,27,2,NA,1,1,0.477
51,36,1,28,2,NA,1,1,0.555
51,36,1,29,2,NA,1,1,0.681
51,36,1,30,2,NA,1,1,0.527
51,36,1,31,2,NA,1,1,0.837
51,36,1,32,1,NA,1,1,0.626
51,36,1,33,2,NA,1,1,1.024
51,36,1,34,1,NA,1,1,0.444
51,36,1,35,2,NA,1,1,0.394
51,36,1,36,1,NA,1,0,0.729
51,36,1,37,2,NA,1,1,0.536
51,36,1,38,1,NA,1,1,0.684
51,36,1,39,2,NA,1,1,0.542
51,36,1,40,1,NA,1,1,1.009
51,36,1,41,2,NA,1,1,0.86
51,36,1,42,1,NA,1,1,0.536
51,36,1,43,1,NA,1,1,0.509
51,36,1,44,1,NA,1,0,0.429
51,36,1,45,2,NA,1,1,1.497
51,36,1,46,1,NA,1,1,0.471
51,36,1,47,1,NA,1,1,0.605
51,36,1,48,1,NA,1,1,0.74
51,36,1,49,1,NA,1,1,0.432
51,36,1,50,2,NA,1,1,0.525
51,36,1,51,2,NA,1,1,0.45
51,36,1,52,2,NA,1,1,0.92
51,36,1,53,1,NA,1,1,0.477
51,36,1,54,1,NA,1,1,0.53
51,36,1,55,1,NA,1,1,0.929
51,36,1,56,2,NA,1,1,0.607
51,36,1,57,1,NA,1,1,0.611
51,36,1,58,1,NA,1,1,0.457
51,36,1,59,1,NA,1,1,0.592
51,36,1,60,2,NA,1,1,0.791
51,36,1,61,1,NA,1,1,0.579
51,36,1,62,2,NA,1,1,0.776
51,36,1,63,1,NA,1,1,0.517
51,36,1,64,1,NA,1,1,0.764
51,36,1,65,2,NA,1,1,0.928
51,36,1,66,2,NA,1,1,0.543
51,36,1,67,2,NA,1,1,1.213
51,36,1,68,1,NA,1,1,0.568
51,36,1,69,2,NA,1,1,0.661
51,36,1,70,2,NA,1,1,0.396
51,36,1,71,1,NA,1,1,1.025
51,36,1,72,2,NA,1,1,0.438
51,36,1,73,1,NA,1,1,0.379
51,36,1,74,2,NA,1,1,0.36
51,36,1,75,2,NA,1,1,0.384
51,36,1,76,1,NA,1,1,0.348
51,36,1,77,1,NA,1,1,0.368
51,36,1,78,1,NA,1,1,0.351
51,36,1,79,2,NA,1,1,0.38
51,36,1,80,2,NA,1,1,0.683
51,36,1,81,2,NA,1,0,0.401
51,36,1,82,2,NA,1,1,0.929
51,36,1,83,2,NA,1,1,0.925
51,36,1,84,1,NA,1,1,0.588
51,36,1,85,1,NA,1,1,0.761
51,36,1,86,1,NA,1,1,0.431
51,36,1,87,2,NA,1,1,0.397
51,36,1,88,2,NA,1,1,0.77
51,36,1,89,2,NA,1,1,0.449
51,36,1,90,2,NA,1,1,0.557
51,36,1,91,1,NA,1,0,0.674
51,36,1,92,1,NA,1,1,1.089
51,36,1,93,2,NA,1,1,0.438
51,36,1,94,1,NA,1,1,0.74
51,36,1,95,1,NA,1,1,0.744
51,36,1,96,2,NA,1,1,0.526
51,37,1,4,1,NA,1,1,0.501
51,37,1,5,2,NA,1,0,0.827
51,37,1,6,1,NA,1,1,0.446
51,37,1,7,1,NA,1,1,0.469
51,37,1,8,2,NA,1,1,0.434
51,37,1,9,1,NA,1,0,0.508
51,37,1,10,1,NA,1,1,0.693
51,37,1,11,1,NA,1,1,0.515
51,37,1,12,2,NA,1,1,0.725
51,37,1,13,1,NA,1,1,0.664
51,37,1,14,2,NA,1,1,0.542
51,37,1,15,1,NA,1,1,0.471
51,37,1,16,2,NA,1,1,0.55
51,37,1,17,1,NA,1,1,0.472
51,37,1,18,1,NA,1,1,0.406
51,37,1,19,1,NA,1,1,0.552
51,37,1,20,2,NA,1,1,0.481
51,37,1,21,2,NA,1,1,0.52
51,37,1,22,2,NA,1,1,0.616
51,37,1,23,1,NA,1,1,0.464
51,37,1,24,2,NA,1,1,0.399
51,37,1,25,2,NA,1,1,0.572
51,37,1,26,1,NA,1,1,0.613
51,37,1,27,2,NA,1,1,0.522
51,37,1,28,2,NA,1,0,0.554
51,37,1,29,2,NA,1,1,0.643
51,37,1,30,2,NA,1,0,0.684
51,37,1,31,2,NA,1,1,0.633
51,37,1,32,2,NA,1,0,0.832
51,37,1,33,2,NA,1,1,0.7
51,37,1,34,1,NA,1,1,0.583
51,37,1,35,1,NA,1,1,0.464
51,37,1,36,1,NA,1,1,0.69
51,37,1,37,2,NA,1,1,0.603
51,37,1,38,1,NA,1,1,0.491
51,37,1,39,2,NA,1,1,0.796
51,37,1,40,2,NA,1,1,0.744
51,37,1,41,2,NA,1,1,0.495
51,37,1,42,1,NA,1,1,0.623
51,37,1,43,1,NA,1,1,0.572
51,37,1,44,2,NA,1,1,0.635
51,37,1,45,1,NA,1,1,0.633
51,37,1,46,1,NA,1,1,0.634
51,37,1,47,1,NA,1,1,0.581
51,37,1,48,1,NA,1,1,0.532
51,37,1,49,1,NA,1,1,0.532
51,37,1,50,1,NA,1,0,0.463
51,37,1,51,2,NA,1,1,0.777
51,37,1,52,2,NA,1,1,0.682
51,37,1,53,1,NA,1,0,0.522
51,37,1,54,2,NA,1,1,0.47
51,37,1,55,1,NA,1,1,0.593
51,37,1,56,1,NA,1,1,0.598
51,37,1,57,1,NA,1,1,0.542
51,37,1,58,1,NA,1,1,0.675
51,37,1,59,2,NA,1,1,0.859
51,37,1,60,2,NA,1,0,0.624
51,37,1,61,1,NA,1,1,0.674
51,37,1,62,2,NA,1,1,0.568
51,37,1,63,1,NA,1,1,0.657
51,37,1,64,2,NA,1,0,0.778
51,37,1,65,1,NA,1,1,0.603
51,37,1,66,2,NA,1,0,0.735
51,37,1,67,2,NA,1,1,0.683
51,37,1,68,1,NA,1,1,0.784
51,37,1,69,2,NA,1,1,0.589
51,37,1,70,1,NA,1,1,0.816
51,37,1,71,1,NA,1,1,0.651
51,37,1,72,1,NA,1,1,0.613
51,37,1,73,2,NA,1,1,0.544
51,37,1,74,1,NA,1,1,0.613
51,37,1,75,2,NA,1,1,0.653
51,37,1,76,1,NA,1,1,0.622
51,37,1,77,1,NA,1,1,0.673
51,37,1,78,1,NA,1,1,0.613
51,37,1,79,1,NA,1,1,0.624
51,37,1,80,2,NA,1,1,0.561
51,37,1,81,2,NA,1,1,0.705
51,37,1,82,2,NA,1,1,0.768
51,37,1,83,1,NA,1,0,0.846
51,37,1,84,1,NA,1,1,0.673
51,37,1,85,2,NA,1,1,0.735
51,37,1,86,2,NA,1,1,0.846
51,37,1,87,2,NA,1,1,0.664
51,37,1,88,2,NA,1,1,0.664
51,37,1,89,1,NA,1,1,0.616
51,37,1,90,2,NA,1,1,0.595
51,37,1,91,1,NA,1,1,0.573
51,37,1,92,2,NA,1,1,0.521
51,37,1,93,1,NA,1,1,0.721
51,37,1,94,2,NA,1,1,0.623
51,37,1,95,2,NA,1,0,0.737
51,37,1,96,1,NA,1,0,0.641
51,38,1,4,1,NA,1,1,0.481
51,38,1,5,1,NA,1,1,0.641
51,38,1,6,1,NA,1,1,0.536
51,38,1,7,2,NA,1,1,0.556
51,38,1,8,1,NA,1,1,0.452
51,38,1,9,1,NA,1,1,0.403
51,38,1,10,2,NA,1,1,0.541
51,38,1,11,2,NA,1,1,0.75
51,38,1,12,1,NA,1,1,0.709
51,38,1,13,2,NA,1,1,0.601
51,38,1,14,1,NA,1,1,0.552
51,38,1,15,1,NA,1,1,0.604
51,38,1,16,2,NA,1,0,0.73
51,38,1,17,2,NA,1,1,0.75
51,38,1,18,2,NA,1,1,0.455
51,38,1,19,1,NA,1,1,0.511
51,38,1,20,2,NA,1,1,0.853
51,38,1,21,2,NA,1,1,0.575
51,38,1,22,2,NA,1,1,0.651
51,38,1,23,2,NA,1,1,0.76
51,38,1,24,1,NA,1,1,0.6
51,38,1,25,2,NA,1,1,0.562
51,38,1,26,2,NA,1,1,0.484
51,38,1,27,1,NA,1,1,0.677
51,38,1,28,2,NA,1,1,0.493
51,38,1,29,2,NA,1,1,0.551
51,38,1,30,2,NA,1,1,0.442
51,38,1,31,1,NA,1,1,0.64
51,38,1,32,2,NA,1,1,0.578
51,38,1,33,1,NA,1,1,0.604
51,38,1,34,2,NA,1,1,0.675
51,38,1,35,1,NA,1,1,0.509
51,38,1,36,2,NA,1,1,0.575
51,38,1,37,2,NA,1,1,0.711
51,38,1,38,1,NA,1,1,0.675
51,38,1,39,1,NA,1,1,0.635
51,38,1,40,2,NA,1,1,0.651
51,38,1,41,2,NA,1,1,0.653
51,38,1,42,1,NA,1,1,0.742
51,38,1,43,2,NA,1,1,0.627
51,38,1,44,1,NA,1,1,0.477
51,38,1,45,1,NA,1,1,0.446
51,38,1,46,1,NA,1,1,0.46
51,38,1,47,2,NA,1,1,0.595
51,38,1,48,2,NA,1,1,0.554
51,38,1,49,1,NA,1,1,0.49
51,38,1,50,2,NA,1,1,0.623
51,38,1,51,1,NA,1,1,0.538
51,38,1,52,1,NA,1,1,0.572
51,38,1,53,1,NA,1,1,0.368
51,38,1,54,1,NA,1,1,0.557
51,38,1,55,1,NA,1,1,0.445
51,38,1,56,2,NA,1,1,0.608
51,38,1,57,2,NA,1,1,0.594
51,38,1,58,2,NA,1,1,0.688
51,38,1,59,1,NA,1,1,0.586
51,38,1,60,1,NA,1,1,0.591
51,38,1,61,1,NA,1,1,0.44
51,38,1,62,1,NA,1,1,0.47
51,38,1,63,1,NA,1,1,0.566
51,38,1,64,2,NA,1,1,0.481
51,38,1,65,2,NA,1,1,0.56
51,38,1,66,2,NA,1,1,0.766
51,38,1,67,1,NA,1,1,0.485
51,38,1,68,2,NA,1,1,0.461
51,38,1,69,1,NA,1,1,0.423
51,38,1,70,2,NA,1,1,0.421
51,38,1,71,1,NA,1,1,0.442
51,38,1,72,1,NA,1,1,0.521
51,38,1,73,1,NA,1,1,0.42
51,38,1,74,2,NA,1,1,0.463
51,38,1,75,2,NA,1,1,0.689
51,38,1,76,2,NA,1,1,0.463
51,38,1,77,1,NA,1,1,0.541
51,38,1,78,2,NA,1,1,0.447
51,38,1,79,2,NA,1,1,0.638
51,38,1,80,1,NA,1,1,0.501
51,38,1,81,1,NA,1,1,0.578
51,38,1,82,2,NA,1,1,0.545
51,38,1,83,1,NA,1,1,0.494
51,38,1,84,2,NA,1,1,0.462
51,38,1,85,2,NA,1,1,0.429
51,38,1,86,2,NA,1,1,0.41
51,38,1,87,1,NA,1,1,0.502
51,38,1,88,2,NA,1,1,0.787
51,38,1,89,1,NA,1,1,0.496
51,38,1,90,1,NA,1,1,0.489
51,38,1,91,2,NA,1,0,0.7
51,38,1,92,1,NA,1,1,0.564
51,38,1,93,2,NA,1,1,1.1
51,38,1,94,1,NA,1,1,0.471
51,38,1,95,2,NA,1,1,0.555
51,38,1,96,2,NA,1,1,0.633
51,39,1,4,2,NA,1,1,0.746
51,39,1,5,2,NA,1,1,0.566
51,39,1,6,1,NA,1,1,0.469
51,39,1,7,2,NA,1,0,0.711
51,39,1,8,2,NA,1,1,0.64
51,39,1,9,2,NA,1,1,0.632
51,39,1,10,1,NA,1,1,0.512
51,39,1,11,2,NA,1,1,0.671
51,39,1,12,2,NA,1,1,0.473
51,39,1,13,2,NA,1,1,0.668
51,39,1,14,2,NA,1,1,0.612
51,39,1,15,1,NA,1,1,0.611
51,39,1,16,2,NA,1,1,1.071
51,39,1,17,2,NA,1,1,0.587
51,39,1,18,1,NA,1,1,0.62
51,39,1,19,2,NA,1,1,0.918
51,39,1,20,2,NA,1,1,0.682
51,39,1,21,2,NA,1,1,0.599
51,39,1,22,1,NA,1,1,0.95
51,39,1,23,2,NA,1,1,0.669
51,39,1,24,2,NA,1,1,0.921
51,39,1,25,1,NA,1,1,0.663
51,39,1,26,2,NA,1,1,0.903
51,39,1,27,2,NA,1,1,0.64
51,39,1,28,1,NA,1,1,0.749
51,39,1,29,1,NA,1,1,0.498
51,39,1,30,1,NA,1,1,0.554
51,39,1,31,2,NA,1,1,0.875
51,39,1,32,2,NA,1,1,0.851
51,39,1,33,2,NA,1,1,1.114
51,39,1,34,1,NA,1,1,0.723
51,39,1,35,2,NA,1,1,0.739
51,39,1,36,1,NA,1,1,0.655
51,39,1,37,1,NA,1,1,0.685
51,39,1,38,1,NA,1,1,0.654
51,39,1,39,1,NA,1,1,0.857
51,39,1,40,2,NA,1,1,0.79
51,39,1,41,2,NA,1,1,0.855
51,39,1,42,2,NA,1,1,0.662
51,39,1,43,2,NA,1,1,0.91
51,39,1,44,2,NA,1,1,0.642
51,39,1,45,1,NA,1,1,0.678
51,39,1,46,2,NA,1,1,0.624
51,39,1,47,2,NA,1,1,0.772
51,39,1,48,1,NA,1,1,0.648
51,39,1,49,2,NA,1,1,0.739
51,39,1,50,1,NA,1,1,0.486
51,39,1,51,2,NA,1,1,0.526
51,39,1,52,1,NA,1,1,0.569
51,39,1,53,2,NA,1,1,0.497
51,39,1,54,2,NA,1,1,0.443
51,39,1,55,1,NA,1,1,0.443
51,39,1,56,2,NA,1,1,0.529
51,39,1,57,2,NA,1,0,0.662
51,39,1,58,1,NA,1,1,0.656
51,39,1,59,2,NA,1,1,0.57
51,39,1,60,1,NA,1,1,0.517
51,39,1,61,1,NA,1,1,0.498
51,39,1,62,2,NA,1,1,0.733
51,39,1,63,2,NA,1,1,0.54
51,39,1,64,1,NA,1,1,0.613
51,39,1,65,2,NA,1,1,0.652
51,39,1,66,1,NA,1,1,0.509
51,39,1,67,1,NA,1,1,0.559
51,39,1,68,1,NA,1,1,0.553
51,39,1,69,1,NA,1,1,0.555
51,39,1,70,2,NA,1,1,0.571
51,39,1,71,1,NA,1,1,0.548
51,39,1,72,1,NA,1,1,0.596
51,39,1,73,1,NA,1,1,0.602
51,39,1,74,1,NA,1,1,0.568
51,39,1,75,2,NA,1,0,0.674
51,39,1,76,1,NA,1,1,0.677
51,39,1,77,2,NA,1,1,0.917
51,39,1,78,1,NA,1,1,0.636
51,39,1,79,1,NA,1,1,0.536
51,39,1,80,1,NA,1,1,0.559
51,39,1,81,2,NA,1,1,1.158
51,39,1,82,1,NA,1,1,0.733
51,39,1,83,2,NA,1,1,1.054
51,39,1,84,1,NA,1,1,0.71
51,39,1,86,2,NA,1,1,0.749
51,39,1,87,1,NA,1,1,0.721
51,39,1,88,1,NA,1,1,0.485
51,39,1,89,1,NA,1,1,0.63
51,39,1,90,1,NA,1,1,0.655
51,39,1,91,2,NA,1,0,0.553
51,39,1,92,2,NA,1,1,0.783
51,39,1,93,1,NA,1,1,0.734
51,39,1,94,1,NA,1,1,0.576
51,39,1,95,1,NA,1,1,0.506
51,39,1,96,1,NA,1,1,0.509
51,40,1,4,2,NA,1,1,0.71
51,40,1,5,1,NA,1,1,0.467
51,40,1,6,2,NA,1,1,0.767
51,40,1,7,1,NA,1,1,0.53
51,40,1,8,1,NA,1,1,0.523
51,40,1,9,1,NA,1,1,0.465
51,40,1,10,2,NA,1,1,0.905
51,40,1,11,2,NA,1,1,0.937
51,40,1,12,2,NA,1,1,0.86
51,40,1,13,2,NA,1,1,0.668
51,40,1,14,2,NA,1,1,0.803
51,40,1,15,2,NA,1,1,0.746
51,40,1,16,2,NA,1,1,0.666
51,40,1,17,2,NA,1,1,0.764
51,40,1,18,1,NA,1,1,0.572
51,40,1,19,1,NA,1,1,0.607
51,40,1,20,1,NA,1,1,0.502
51,40,1,21,2,NA,1,1,0.673
51,40,1,22,2,NA,1,0,0.838
51,40,1,23,1,NA,1,1,0.522
51,40,1,24,2,NA,1,1,0.671
51,40,1,25,1,NA,1,1,0.597
51,40,1,26,1,NA,1,1,0.491
51,40,1,27,2,NA,1,1,0.665
51,40,1,28,1,NA,1,1,0.434
51,40,1,29,2,NA,1,1,0.822
51,40,1,30,1,NA,1,1,0.55
51,40,1,31,2,NA,1,1,0.747
51,40,1,32,1,NA,1,1,0.468
51,40,1,33,1,NA,1,1,0.5
51,40,1,34,1,NA,1,1,0.393
51,40,1,35,2,NA,1,1,0.662
51,40,1,36,1,NA,1,1,0.59
51,40,1,37,2,NA,1,1,1.041
51,40,1,38,2,NA,1,1,0.828
51,40,1,39,1,NA,1,1,0.651
51,40,1,40,1,NA,1,1,0.542
51,40,1,41,1,NA,1,1,0.446
51,40,1,42,1,NA,1,1,0.556
51,40,1,43,1,NA,1,1,0.523
51,40,1,44,2,NA,1,1,0.737
51,40,1,45,1,NA,1,1,0.516
51,40,1,46,1,NA,1,1,0.577
51,40,1,47,1,NA,1,1,0.518
51,40,1,48,2,NA,1,1,0.849
51,40,1,49,1,NA,1,1,0.563
51,40,1,50,2,NA,1,0,0.636
51,40,1,51,2,NA,1,1,0.788
51,40,1,52,1,NA,1,1,0.466
51,40,1,53,2,NA,1,1,0.781
51,40,1,54,2,NA,1,1,0.708
51,40,1,55,2,NA,1,1,1.055
51,40,1,56,1,NA,1,1,0.479
51,40,1,57,2,NA,1,1,0.706
51,40,1,58,1,NA,1,1,0.486
51,40,1,59,2,NA,1,1,0.827
51,40,1,60,1,NA,1,1,0.524
51,40,1,61,2,NA,1,1,1.048
51,40,1,62,2,NA,1,1,0.624
51,40,1,63,2,NA,1,0,0.781
51,40,1,64,1,NA,1,1,0.599
51,40,1,65,2,NA,1,1,0.75
51,40,1,66,2,NA,1,1,0.783
51,40,1,67,2,NA,1,1,0.875
51,40,1,68,1,NA,1,1,0.567
51,40,1,69,2,NA,1,1,0.812
51,40,1,70,2,NA,1,1,0.67
51,40,1,71,2,NA,1,1,0.64
51,40,1,72,2,NA,1,1,0.657
51,40,1,73,1,NA,1,1,0.475
51,40,1,74,1,NA,1,1,0.504
51,40,1,75,2,NA,1,1,0.869
51,40,1,76,1,NA,1,1,0.498
51,40,1,77,2,NA,1,1,0.795
51,40,1,78,1,NA,1,1,0.539
51,40,1,79,1,NA,1,1,0.48
51,40,1,80,1,NA,1,1,0.609
51,40,1,81,1,NA,1,1,0.495
51,40,1,82,1,NA,1,1,0.447
51,40,1,83,1,NA,1,1,0.447
51,40,1,84,1,NA,1,1,0.477
51,40,1,85,1,NA,1,1,0.409
51,40,1,86,1,NA,1,1,0.519
51,40,1,87,2,NA,1,0,0.866
51,40,1,88,2,NA,1,1,0.704
51,40,1,89,2,NA,1,1,0.824
51,40,1,90,1,NA,1,1,0.416
51,40,1,91,2,NA,1,1,0.683
51,40,1,92,1,NA,1,1,0.581
51,40,1,93,1,NA,1,1,0.546
51,40,1,94,2,NA,1,1,0.848
51,40,1,95,1,NA,1,1,0.437
51,40,1,96,2,NA,1,0,0.739
51,41,1,4,1,NA,1,1,0.543
51,41,1,5,2,NA,1,1,0.731
51,41,1,6,1,NA,1,1,0.746
51,41,1,7,1,NA,1,1,0.638
51,41,1,8,1,NA,1,1,0.491
51,41,1,9,1,NA,1,1,0.589
51,41,1,10,1,NA,1,1,0.58
51,41,1,11,2,NA,1,1,0.801
51,41,1,12,2,NA,1,1,0.568
51,41,1,13,1,NA,1,1,0.655
51,41,1,14,2,NA,1,1,0.65
51,41,1,15,1,NA,1,1,0.441
51,41,1,16,2,NA,1,1,0.891
51,41,1,17,1,NA,1,1,0.598
51,41,1,18,1,NA,1,1,0.726
51,41,1,19,1,NA,1,1,0.463
51,41,1,20,2,NA,1,1,0.572
51,41,1,21,2,NA,1,1,0.931
51,41,1,22,2,NA,1,1,0.873
51,41,1,23,1,NA,1,1,0.574
51,41,1,24,2,NA,1,1,0.821
51,41,1,25,1,NA,1,1,0.673
51,41,1,26,1,NA,1,1,0.649
51,41,1,27,2,NA,1,1,0.746
51,41,1,28,1,NA,1,1,1.018
51,41,1,29,1,NA,1,1,0.844
51,41,1,30,1,NA,1,1,0.796
51,41,1,31,1,NA,1,1,0.624
51,41,1,32,1,NA,1,1,1.034
51,41,1,33,1,NA,1,1,0.696
51,41,1,34,2,NA,1,1,0.689
51,41,1,35,2,NA,1,1,0.684
51,41,1,36,1,NA,1,1,0.657
51,41,1,37,2,NA,1,1,0.695
51,41,1,38,2,NA,1,1,0.916
51,41,1,39,2,NA,1,1,0.898
51,41,1,40,1,NA,1,1,0.855
51,41,1,41,2,NA,1,1,0.946
51,41,1,42,1,NA,1,1,1.006
51,41,1,43,2,NA,1,1,0.792
51,41,1,44,2,NA,1,1,0.726
51,41,1,45,1,NA,1,1,0.661
51,41,1,46,2,NA,1,1,0.86
51,41,1,47,1,NA,1,1,0.642
51,41,1,48,2,NA,1,1,0.767
51,41,1,49,1,NA,1,1,0.691
51,41,1,50,2,NA,1,1,0.611
51,41,1,51,2,NA,1,1,0.737
51,41,1,52,1,NA,1,1,0.638
51,41,1,53,1,NA,1,1,0.729
51,41,1,54,1,NA,1,1,0.786
51,41,1,55,2,NA,1,1,0.802
51,41,1,56,2,NA,1,1,0.655
51,41,1,57,1,NA,1,1,0.766
51,41,1,58,2,NA,1,1,0.714
51,41,1,59,2,NA,1,1,1.201
51,41,1,60,1,NA,1,1,0.677
51,41,1,61,2,NA,1,1,0.71
51,41,1,62,2,NA,1,1,1.174
51,41,1,63,2,NA,1,1,0.734
51,41,1,64,1,NA,1,1,0.658
51,41,1,65,2,NA,1,1,0.663
51,41,1,66,2,NA,1,1,0.915
51,41,1,67,1,NA,1,1,0.604
51,41,1,68,2,NA,1,1,0.694
51,41,1,69,2,NA,1,1,0.767
51,41,1,70,2,NA,1,1,0.68
51,41,1,71,2,NA,1,1,0.74
51,41,1,72,1,NA,1,1,0.69
51,41,1,73,2,NA,1,1,0.86
51,41,1,74,2,NA,1,1,0.772
51,41,1,75,1,NA,1,1,0.605
51,41,1,76,1,NA,1,1,0.742
51,41,1,77,1,NA,1,1,1.145
51,41,1,78,1,NA,1,1,0.839
51,41,1,79,2,NA,1,1,0.752
51,41,1,80,2,NA,1,1,0.708
51,41,1,81,2,NA,1,1,0.806
51,41,1,82,1,NA,1,1,0.745
51,41,1,83,1,NA,1,1,0.638
51,41,1,84,1,NA,1,1,0.719
51,41,1,85,2,NA,1,1,0.704
51,41,1,86,2,NA,1,1,0.689
51,41,1,87,1,NA,1,1,0.625
51,41,1,88,1,NA,1,1,0.697
51,41,1,89,2,NA,1,1,0.715
51,41,1,90,1,NA,1,1,0.682
51,41,1,91,1,NA,1,1,0.658
51,41,1,92,2,NA,1,1,0.813
51,41,1,93,2,NA,1,1,0.667
51,41,1,94,1,NA,1,1,0.636
51,41,1,95,1,NA,1,1,0.739
51,41,1,96,2,NA,1,1,0.842
51,42,1,4,2,NA,1,1,1.112
51,42,1,5,1,NA,1,1,0.683
51,42,1,6,1,NA,1,1,0.675
51,42,1,7,2,NA,1,1,1
51,42,1,8,1,NA,1,1,0.588
51,42,1,9,2,NA,1,1,1.208
51,42,1,10,2,NA,1,1,0.704
51,42,1,11,1,NA,1,1,0.562
51,42,1,12,2,NA,1,1,0.625
51,42,1,13,2,NA,1,1,0.484
51,42,1,14,1,NA,1,1,0.633
51,42,1,15,1,NA,1,1,0.511
51,42,1,16,1,NA,1,1,0.706
51,42,1,17,1,NA,1,1,0.7
51,42,1,18,2,NA,1,0,0.787
51,42,1,19,1,NA,1,1,0.669
51,42,1,20,2,NA,1,1,0.851
51,42,1,21,1,NA,1,1,0.61
51,42,1,22,2,NA,1,1,0.742
51,42,1,23,1,NA,1,1,0.669
51,42,1,24,2,NA,1,1,0.615
51,42,1,25,2,NA,1,1,1.028
51,42,1,26,2,NA,1,1,0.691
51,42,1,27,1,NA,1,1,0.719
51,42,1,28,2,NA,1,1,0.86
51,42,1,29,1,NA,1,1,0.972
51,42,1,30,2,NA,1,1,0.937
51,42,1,31,1,NA,1,1,1
51,42,1,32,2,NA,1,1,0.894
51,42,1,33,1,NA,1,1,0.678
51,42,1,34,1,NA,1,1,0.65
51,42,1,35,1,NA,1,1,0.704
51,42,1,36,2,NA,1,1,0.931
51,42,1,37,1,NA,1,1,0.64
51,42,1,38,1,NA,1,1,0.704
51,42,1,39,2,NA,1,1,0.675
51,42,1,40,2,NA,1,1,0.997
51,42,1,41,1,NA,1,1,0.842
51,42,1,42,1,NA,1,1,0.673
51,42,1,43,2,NA,1,1,1.156
51,42,1,44,1,NA,1,1,0.672
51,42,1,45,1,NA,1,1,0.658
51,42,1,46,1,NA,1,1,0.658
51,42,1,47,1,NA,1,1,0.61
51,42,1,48,2,NA,1,1,0.627
51,42,1,49,2,NA,1,1,1.083
51,42,1,50,1,NA,1,1,0.64
51,42,1,51,2,NA,1,1,0.652
51,42,1,52,1,NA,1,1,0.514
51,42,1,53,2,NA,1,1,0.486
51,42,1,54,2,NA,1,1,0.578
51,42,1,55,1,NA,1,1,0.755
51,42,1,56,2,NA,1,1,0.581
51,42,1,57,2,NA,1,1,0.922
51,42,1,58,2,NA,1,1,0.605
51,42,1,59,2,NA,1,1,0.652
51,42,1,60,2,NA,1,1,0.489
51,42,1,61,1,NA,1,1,0.709
51,42,1,62,2,NA,1,1,0.671
51,42,1,63,1,NA,1,1,0.655
51,42,1,64,2,NA,1,1,0.763
51,42,1,65,1,NA,1,1,0.615
51,42,1,66,1,NA,1,1,0.634
51,42,1,67,2,NA,1,1,0.541
51,42,1,68,2,NA,1,1,0.949
51,42,1,69,1,NA,1,1,0.635
51,42,1,70,1,NA,1,1,0.735
51,42,1,71,1,NA,1,1,0.573
51,42,1,72,2,NA,1,1,0.665
51,42,1,73,1,NA,1,1,0.674
51,42,1,74,1,NA,1,1,0.703
51,42,1,75,2,NA,1,1,0.891
51,42,1,77,1,NA,1,1,0.736
51,42,1,78,1,NA,1,1,0.689
51,42,1,79,2,NA,1,1,0.828
51,42,1,80,2,NA,1,1,0.926
51,42,1,81,2,NA,1,1,0.763
51,42,1,82,1,NA,1,1,0.813
51,42,1,83,1,NA,1,1,0.687
51,42,1,84,1,NA,1,1,0.636
51,42,1,85,1,NA,1,1,0.712
51,42,1,86,1,NA,1,1,0.505
51,42,1,87,2,NA,1,1,0.624
51,42,1,88,1,NA,1,1,0.593
51,42,1,89,2,NA,1,1,0.888
51,42,1,90,2,NA,1,1,0.937
51,42,1,91,2,NA,1,1,1.11
51,42,1,92,2,NA,1,1,0.536
51,42,1,93,1,NA,1,1,0.742
51,42,1,94,2,NA,1,1,0.891
51,42,1,95,1,NA,1,1,0.717
51,42,1,96,1,NA,1,1,0.624
51,43,1,4,2,NA,1,1,0.946
51,43,1,5,2,NA,1,1,0.619
51,43,1,6,1,NA,1,1,0.641
51,43,1,7,1,NA,1,1,0.633
51,43,1,8,2,NA,1,1,0.783
51,43,1,9,2,NA,1,0,0.853
51,43,1,10,1,NA,1,1,0.876
51,43,1,11,1,NA,1,1,0.45
51,43,1,12,1,NA,1,0,0.607
51,43,1,13,2,NA,1,1,0.723
51,43,1,14,1,NA,1,1,0.76
51,43,1,15,1,NA,1,1,0.792
51,43,1,16,1,NA,1,0,0.805
51,43,1,17,1,NA,1,1,0.527
51,43,1,18,2,NA,1,1,1.04
51,43,1,19,1,NA,1,1,0.794
51,43,1,20,1,NA,1,1,1.114
51,43,1,21,1,NA,1,1,0.555
51,43,1,22,1,NA,1,1,0.566
51,43,1,23,2,NA,1,1,1.158
51,43,1,24,2,NA,1,1,0.608
51,43,1,25,1,NA,1,1,0.935
51,43,1,26,2,NA,1,1,0.623
51,43,1,27,2,NA,1,1,0.9
51,43,1,29,1,NA,1,1,1.027
51,43,1,30,1,NA,1,1,0.606
51,43,1,31,2,NA,1,1,0.574
51,43,1,32,2,NA,1,1,1.04
51,43,1,33,2,NA,1,1,0.848
51,43,1,34,1,NA,1,1,0.634
51,43,1,35,1,NA,1,1,0.751
51,43,1,36,1,NA,1,1,1.039
51,43,1,37,1,NA,1,1,0.567
51,43,1,38,2,NA,1,1,1.124
51,43,1,39,2,NA,1,1,1.054
51,43,1,40,2,NA,1,1,0.777
51,43,1,41,2,NA,1,1,1.054
51,43,1,42,2,NA,1,1,0.764
51,43,1,43,2,NA,1,1,0.668
51,43,1,44,1,NA,1,1,0.78
51,43,1,45,1,NA,1,1,0.73
51,43,1,46,2,NA,1,1,0.721
51,43,1,47,1,NA,1,1,0.834
51,43,1,48,1,NA,1,1,0.769
51,43,1,49,2,NA,1,1,0.813
51,43,1,50,1,NA,1,1,0.732
51,43,1,51,1,NA,1,1,0.868
51,43,1,52,2,NA,1,1,0.688
51,43,1,53,1,NA,1,1,1.029
51,43,1,54,2,NA,1,0,1.332
51,43,1,55,1,NA,1,1,0.768
51,43,1,56,1,NA,1,1,0.782
51,43,1,57,1,NA,1,1,0.468
51,43,1,58,2,NA,1,1,0.747
51,43,1,59,1,NA,1,1,0.684
51,43,1,60,2,NA,1,1,0.849
51,43,1,61,1,NA,1,1,0.628
51,43,1,62,2,NA,1,1,0.747
51,43,1,63,2,NA,1,1,0.994
51,43,1,64,2,NA,1,1,0.871
51,43,1,65,2,NA,1,1,1.188
51,43,1,66,2,NA,1,1,0.901
51,43,1,67,1,NA,1,1,0.735
51,43,1,68,1,NA,1,1,0.936
51,43,1,69,1,NA,1,1,0.847
51,43,1,70,1,NA,1,1,1.113
51,43,1,71,1,NA,1,1,0.752
51,43,1,72,2,NA,1,1,1.275
51,43,1,73,2,NA,1,1,0.742
51,43,1,74,2,NA,1,1,0.842
51,43,1,75,1,NA,1,1,0.779
51,43,1,76,2,NA,1,1,1.163
51,43,1,78,2,NA,1,1,0.92
51,43,1,79,2,NA,1,1,1.119
51,43,1,80,2,NA,1,1,0.937
51,43,1,81,2,NA,1,0,0.82
51,43,1,82,1,NA,1,1,0.968
51,43,1,83,2,NA,1,1,0.783
51,43,1,85,1,NA,1,1,0.459
51,43,1,86,1,NA,1,1,0.504
51,43,1,87,2,NA,1,0,0.796
51,43,1,89,1,NA,1,1,0.658
51,43,1,90,1,NA,1,1,0.813
51,43,1,91,2,NA,1,1,0.815
51,43,1,92,2,NA,1,1,1.044
51,43,1,93,1,NA,1,1,0.879
51,43,1,94,2,NA,1,1,0.878
51,43,1,95,1,NA,1,1,0.493
51,43,1,96,1,NA,1,1,0.763
51,44,1,4,2,NA,1,1,0.692
51,44,1,5,1,NA,1,1,0.625
51,44,1,6,1,NA,1,1,0.75
51,44,1,7,2,NA,1,1,0.841
51,44,1,8,2,NA,1,1,0.878
51,44,1,9,1,NA,1,1,0.992
51,44,1,10,1,NA,1,1,0.861
51,44,1,11,1,NA,1,1,1.13
51,44,1,12,2,NA,1,1,1.389
51,44,1,13,2,NA,1,1,0.865
51,44,1,14,1,NA,1,1,1.094
51,44,1,16,1,NA,1,1,0.7
51,44,1,17,1,NA,1,1,0.705
51,44,1,18,2,NA,1,1,0.886
51,44,1,19,1,NA,1,1,0.787
51,44,1,20,1,NA,1,1,0.734
51,44,1,21,1,NA,1,1,1.003
51,44,1,22,2,NA,1,1,1.184
51,44,1,23,1,NA,1,1,1.131
51,44,1,24,2,NA,1,1,1.264
51,44,1,25,1,NA,1,1,0.726
51,44,1,26,2,NA,1,1,0.908
51,44,1,28,2,NA,1,1,0.886
51,44,1,29,2,NA,1,1,0.714
51,44,1,30,1,NA,1,1,0.927
51,44,1,31,2,NA,1,0,0.883
51,44,1,32,2,NA,1,1,0.928
51,44,1,33,2,NA,1,1,0.804
51,44,1,34,2,NA,1,1,0.834
51,44,1,35,2,NA,1,1,1.047
51,44,1,36,1,NA,1,1,0.901
51,44,1,37,2,NA,1,1,0.914
51,44,1,38,2,NA,1,1,1.166
51,44,1,39,2,NA,1,1,1.041
51,44,1,40,1,NA,1,1,0.728
51,44,1,41,2,NA,1,1,0.911
51,44,1,42,1,NA,1,1,0.829
51,44,1,43,2,NA,1,1,1.346
51,44,1,44,1,NA,1,1,0.823
51,44,1,45,2,NA,1,1,0.989
51,44,1,46,2,NA,1,1,0.978
51,44,1,47,1,NA,1,1,1.03
51,44,1,48,1,NA,1,1,0.947
51,44,1,49,2,NA,1,1,1.226
51,44,1,50,1,NA,1,1,1.174
51,44,1,51,2,NA,1,1,1.29
51,44,1,52,1,NA,1,1,0.814
51,44,1,53,1,NA,1,1,0.636
51,44,1,54,1,NA,1,1,0.769
51,44,1,55,1,NA,1,1,1.294
51,44,1,56,1,NA,1,1,0.811
51,44,1,57,1,NA,1,1,0.806
51,44,1,58,1,NA,1,1,1.267
51,44,1,59,1,NA,1,1,0.8
51,44,1,60,2,NA,1,1,0.694
51,44,1,61,2,NA,1,1,1.06
51,44,1,62,1,NA,1,1,1.247
51,44,1,63,1,NA,1,1,0.653
51,44,1,65,2,NA,1,1,0.696
51,44,1,66,2,NA,1,1,0.933
51,44,1,67,1,NA,1,1,0.722
51,44,1,68,1,NA,1,1,1.072
51,44,1,69,1,NA,1,1,0.676
51,44,1,70,1,NA,1,1,0.738
51,44,1,71,2,NA,1,1,1.023
51,44,1,72,2,NA,1,1,1.324
51,44,1,73,1,NA,1,1,0.705
51,44,1,74,2,NA,1,1,1.127
51,44,1,75,1,NA,1,1,0.812
51,44,1,77,2,NA,1,1,0.856
51,44,1,78,2,NA,1,1,1.181
51,44,1,79,1,NA,1,1,0.623
51,44,1,80,2,NA,1,1,0.861
51,44,1,81,2,NA,1,1,1.017
51,44,1,82,1,NA,1,1,0.838
51,44,1,83,2,NA,1,1,0.955
51,44,1,84,2,NA,1,0,1.064
51,44,1,85,1,NA,1,1,0.702
51,44,1,86,1,NA,1,1,0.795
51,44,1,87,1,NA,1,1,1.064
51,44,1,88,1,NA,1,1,1.334
51,44,1,89,2,NA,1,0,0.972
51,44,1,90,2,NA,1,1,0.993
51,44,1,91,2,NA,1,1,1.335
51,44,1,92,1,NA,1,1,0.86
51,44,1,93,1,NA,1,1,0.833
51,44,1,94,2,NA,1,1,1.115
51,44,1,95,1,NA,1,1,0.847
51,44,1,96,1,NA,1,1,0.884
51,46,1,4,1,NA,1,1,0.513
51,46,1,5,1,NA,1,1,0.651
51,46,1,6,2,NA,1,1,0.774
51,46,1,7,1,NA,1,1,0.567
51,46,1,8,1,NA,1,1,0.709
51,46,1,9,1,NA,1,1,1.124
51,46,1,10,1,NA,1,1,0.637
51,46,1,11,1,NA,1,1,0.733
51,46,1,12,1,NA,1,1,0.512
51,46,1,13,2,NA,1,1,0.776
51,46,1,14,2,NA,1,1,0.729
51,46,1,15,1,NA,1,1,0.572
51,46,1,16,1,NA,1,1,0.751
51,46,1,17,2,NA,1,1,0.725
51,46,1,18,1,NA,1,1,0.527
51,46,1,19,2,NA,1,1,0.861
51,46,1,20,2,NA,1,1,1.234
51,46,1,21,2,NA,1,1,0.756
51,46,1,22,2,NA,1,1,0.664
51,46,1,23,2,NA,1,1,0.725
51,46,1,24,1,NA,1,1,0.614
51,46,1,25,1,NA,1,1,0.976
51,46,1,26,2,NA,1,1,1.024
51,46,1,27,1,NA,1,1,0.852
51,46,1,28,2,NA,1,1,1.184
51,46,1,29,2,NA,1,1,1.262
51,46,1,30,1,NA,1,1,0.645
51,46,1,32,1,NA,1,1,0.568
51,46,1,33,2,NA,1,1,1.038
51,46,1,34,2,NA,1,1,0.661
51,46,1,35,2,NA,1,1,0.794
51,46,1,36,1,NA,1,1,1.035
51,46,1,37,2,NA,1,1,0.754
51,46,1,38,1,NA,1,1,0.623
51,46,1,39,2,NA,1,1,0.621
51,46,1,40,2,NA,1,1,1.155
51,46,1,41,1,NA,1,1,0.523
51,46,1,42,2,NA,1,1,0.803
51,46,1,43,1,NA,1,1,0.6
51,46,1,44,1,NA,1,1,0.491
51,46,1,45,1,NA,1,1,0.87
51,46,1,46,2,NA,1,1,0.775
51,46,1,47,1,NA,1,1,0.593
51,46,1,48,2,NA,1,1,0.668
51,46,1,49,2,NA,1,1,0.707
51,46,1,50,2,NA,1,1,0.48
51,46,1,51,2,NA,1,1,0.893
51,46,1,52,2,NA,1,1,0.576
51,46,1,53,1,NA,1,1,0.714
51,46,1,54,2,NA,1,1,0.514
51,46,1,55,2,NA,1,0,0.465
51,46,1,56,1,NA,1,1,0.592
51,46,1,57,1,NA,1,1,0.594
51,46,1,58,2,NA,1,1,0.731
51,46,1,59,2,NA,1,1,0.513
