"publication_id","publication_code","study_id","group_description","between_id","observation_id","dataset_id","subject","block","trial","condition_id","congruency","accuracy","rt"
5,"pratte_2010_exploring",26,"University students (US)",26,712558,30,4694,1,4,36,1,1,0.891266
5,"pratte_2010_exploring",26,"University students (US)",26,712559,30,4694,1,5,36,2,1,1.576013
5,"pratte_2010_exploring",26,"University students (US)",26,712560,30,4694,1,6,36,2,0,1.056568
5,"pratte_2010_exploring",26,"University students (US)",26,712561,30,4694,1,7,36,1,1,1.906415
5,"pratte_2010_exploring",26,"University students (US)",26,712562,30,4694,1,8,36,1,1,1.010666
5,"pratte_2010_exploring",26,"University students (US)",26,712563,30,4694,1,9,36,2,1,1.241709
5,"pratte_2010_exploring",26,"University students (US)",26,712564,30,4694,1,10,36,1,1,1.316227
5,"pratte_2010_exploring",26,"University students (US)",26,712565,30,4694,1,11,36,2,1,1.517184
5,"pratte_2010_exploring",26,"University students (US)",26,712568,30,4694,1,14,36,1,1,0.820733
5,"pratte_2010_exploring",26,"University students (US)",26,712569,30,4694,1,15,36,1,1,0.793658
5,"pratte_2010_exploring",26,"University students (US)",26,712571,30,4694,1,17,36,1,1,0.707404
5,"pratte_2010_exploring",26,"University students (US)",26,712573,30,4694,1,19,36,2,1,1.323434
5,"pratte_2010_exploring",26,"University students (US)",26,712576,30,4694,1,22,36,2,1,1.480517
5,"pratte_2010_exploring",26,"University students (US)",26,712577,30,4694,1,23,36,2,1,0.794105
5,"pratte_2010_exploring",26,"University students (US)",26,712579,30,4694,1,25,36,1,1,0.869257
5,"pratte_2010_exploring",26,"University students (US)",26,712580,30,4694,1,26,36,1,1,0.537969
5,"pratte_2010_exploring",26,"University students (US)",26,712584,30,4694,1,30,36,2,1,1.657748
5,"pratte_2010_exploring",26,"University students (US)",26,712585,30,4694,1,31,36,2,1,0.89825
5,"pratte_2010_exploring",26,"University students (US)",26,712587,30,4694,1,33,36,1,1,0.716085
5,"pratte_2010_exploring",26,"University students (US)",26,712589,30,4694,1,35,36,1,1,0.742024
5,"pratte_2010_exploring",26,"University students (US)",26,712590,30,4694,1,36,36,1,1,0.53486
5,"pratte_2010_exploring",26,"University students (US)",26,712592,30,4694,1,38,36,2,1,1.195062
5,"pratte_2010_exploring",26,"University students (US)",26,712593,30,4694,1,39,36,1,1,0.664195
5,"pratte_2010_exploring",26,"University students (US)",26,712594,30,4694,1,40,36,2,1,1.348655
5,"pratte_2010_exploring",26,"University students (US)",26,712595,30,4694,1,41,36,1,1,0.719093
5,"pratte_2010_exploring",26,"University students (US)",26,712596,30,4694,1,42,36,2,1,1.102015
5,"pratte_2010_exploring",26,"University students (US)",26,712597,30,4694,1,43,36,2,1,1.232988
5,"pratte_2010_exploring",26,"University students (US)",26,712599,30,4694,1,45,36,2,1,0.982205
5,"pratte_2010_exploring",26,"University students (US)",26,712600,30,4694,1,46,36,2,1,0.814974
5,"pratte_2010_exploring",26,"University students (US)",26,712601,30,4694,1,47,36,2,1,1.560055
5,"pratte_2010_exploring",26,"University students (US)",26,712602,30,4694,1,48,36,2,1,1.051327
5,"pratte_2010_exploring",26,"University students (US)",26,712603,30,4694,1,49,36,2,1,1.092156
5,"pratte_2010_exploring",26,"University students (US)",26,712604,30,4694,1,50,36,1,1,0.820046
5,"pratte_2010_exploring",26,"University students (US)",26,712606,30,4694,1,52,36,1,1,0.802017
5,"pratte_2010_exploring",26,"University students (US)",26,712607,30,4694,1,53,36,2,1,1.16077
5,"pratte_2010_exploring",26,"University students (US)",26,712608,30,4694,1,54,36,1,1,0.970782
5,"pratte_2010_exploring",26,"University students (US)",26,712612,30,4694,1,58,36,2,1,1.418738
5,"pratte_2010_exploring",26,"University students (US)",26,712613,30,4694,1,59,36,2,1,0.834489
5,"pratte_2010_exploring",26,"University students (US)",26,712614,30,4694,1,60,36,1,1,0.527732
5,"pratte_2010_exploring",26,"University students (US)",26,712615,30,4694,1,61,36,1,1,0.653301
5,"pratte_2010_exploring",26,"University students (US)",26,712619,30,4694,1,65,36,2,1,0.943217
5,"pratte_2010_exploring",26,"University students (US)",26,712622,30,4694,1,68,36,2,1,2.215866
5,"pratte_2010_exploring",26,"University students (US)",26,712624,30,4694,1,70,36,1,1,0.842758
5,"pratte_2010_exploring",26,"University students (US)",26,712625,30,4694,1,71,36,1,1,0.872268
5,"pratte_2010_exploring",26,"University students (US)",26,712626,30,4694,1,72,36,1,1,0.812284
5,"pratte_2010_exploring",26,"University students (US)",26,712630,30,4694,2,4,36,2,1,1.107265
5,"pratte_2010_exploring",26,"University students (US)",26,712631,30,4694,2,5,36,1,1,0.718188
5,"pratte_2010_exploring",26,"University students (US)",26,712632,30,4694,2,6,36,2,1,1.098346
5,"pratte_2010_exploring",26,"University students (US)",26,712633,30,4694,2,7,36,1,1,0.680945
5,"pratte_2010_exploring",26,"University students (US)",26,712636,30,4694,2,10,36,1,1,1.454296
5,"pratte_2010_exploring",26,"University students (US)",26,712637,30,4694,2,11,36,2,1,0.921489
5,"pratte_2010_exploring",26,"University students (US)",26,712639,30,4694,2,13,36,2,1,0.835167
5,"pratte_2010_exploring",26,"University students (US)",26,712643,30,4694,2,17,36,2,1,1.559589
5,"pratte_2010_exploring",26,"University students (US)",26,712644,30,4694,2,18,36,1,1,0.633721
5,"pratte_2010_exploring",26,"University students (US)",26,712646,30,4694,2,20,36,2,1,1.020477
5,"pratte_2010_exploring",26,"University students (US)",26,712647,30,4694,2,21,36,1,1,0.601911
5,"pratte_2010_exploring",26,"University students (US)",26,712650,30,4694,2,24,36,2,1,1.090687
5,"pratte_2010_exploring",26,"University students (US)",26,712651,30,4694,2,25,36,2,1,1.60504
5,"pratte_2010_exploring",26,"University students (US)",26,712652,30,4694,2,26,36,2,1,1.074369
5,"pratte_2010_exploring",26,"University students (US)",26,712654,30,4694,2,28,36,2,1,0.874191
5,"pratte_2010_exploring",26,"University students (US)",26,712655,30,4694,2,29,36,2,1,1.049391
5,"pratte_2010_exploring",26,"University students (US)",26,712656,30,4694,2,30,36,2,1,1.314047
5,"pratte_2010_exploring",26,"University students (US)",26,712657,30,4694,2,31,36,1,1,1.042342
5,"pratte_2010_exploring",26,"University students (US)",26,712658,30,4694,2,32,36,1,1,0.948652
5,"pratte_2010_exploring",26,"University students (US)",26,712661,30,4694,2,35,36,1,1,0.698236
5,"pratte_2010_exploring",26,"University students (US)",26,712662,30,4694,2,36,36,2,1,1.282918
5,"pratte_2010_exploring",26,"University students (US)",26,712663,30,4694,2,37,36,2,1,0.946449
5,"pratte_2010_exploring",26,"University students (US)",26,712665,30,4694,2,39,36,1,1,2.006751
5,"pratte_2010_exploring",26,"University students (US)",26,712666,30,4694,2,40,36,1,1,1.017385
5,"pratte_2010_exploring",26,"University students (US)",26,712667,30,4694,2,41,36,1,1,0.674327
5,"pratte_2010_exploring",26,"University students (US)",26,712669,30,4694,2,43,36,1,1,0.719571
5,"pratte_2010_exploring",26,"University students (US)",26,712670,30,4694,2,44,36,1,1,0.836642
5,"pratte_2010_exploring",26,"University students (US)",26,712671,30,4694,2,45,36,2,1,0.986433
5,"pratte_2010_exploring",26,"University students (US)",26,712672,30,4694,2,46,36,1,1,0.768878
5,"pratte_2010_exploring",26,"University students (US)",26,712674,30,4694,2,48,36,2,1,1.02532
5,"pratte_2010_exploring",26,"University students (US)",26,712675,30,4694,2,49,36,1,1,0.570597
5,"pratte_2010_exploring",26,"University students (US)",26,712677,30,4694,2,51,36,2,1,1.069366
5,"pratte_2010_exploring",26,"University students (US)",26,712679,30,4694,2,53,36,2,1,0.775024
5,"pratte_2010_exploring",26,"University students (US)",26,712680,30,4694,2,54,36,2,1,1.184273
5,"pratte_2010_exploring",26,"University students (US)",26,712681,30,4694,2,55,36,1,1,0.653467
5,"pratte_2010_exploring",26,"University students (US)",26,712682,30,4694,2,56,36,1,1,0.814432
5,"pratte_2010_exploring",26,"University students (US)",26,712683,30,4694,2,57,36,2,1,1.355527
5,"pratte_2010_exploring",26,"University students (US)",26,712684,30,4694,2,58,36,2,1,2.104345
5,"pratte_2010_exploring",26,"University students (US)",26,712686,30,4694,2,60,36,2,1,1.075599
5,"pratte_2010_exploring",26,"University students (US)",26,712687,30,4694,2,61,36,1,1,0.977145
5,"pratte_2010_exploring",26,"University students (US)",26,712689,30,4694,2,63,36,1,1,0.46928
5,"pratte_2010_exploring",26,"University students (US)",26,712690,30,4694,2,64,36,1,1,0.611197
5,"pratte_2010_exploring",26,"University students (US)",26,712694,30,4694,2,68,36,1,1,0.705868
5,"pratte_2010_exploring",26,"University students (US)",26,712695,30,4694,2,69,36,2,1,0.946339
5,"pratte_2010_exploring",26,"University students (US)",26,712696,30,4694,2,70,36,1,1,0.623069
5,"pratte_2010_exploring",26,"University students (US)",26,712697,30,4694,2,71,36,1,1,0.694334
5,"pratte_2010_exploring",26,"University students (US)",26,712703,30,4694,3,5,36,2,1,0.680547
5,"pratte_2010_exploring",26,"University students (US)",26,712705,30,4694,3,7,36,2,1,0.929118
5,"pratte_2010_exploring",26,"University students (US)",26,712708,30,4694,3,10,36,2,1,1.469481
5,"pratte_2010_exploring",26,"University students (US)",26,712709,30,4694,3,11,36,2,1,1.172309
5,"pratte_2010_exploring",26,"University students (US)",26,712710,30,4694,3,12,36,1,1,0.938092
5,"pratte_2010_exploring",26,"University students (US)",26,712712,30,4694,3,14,36,1,1,0.822621
5,"pratte_2010_exploring",26,"University students (US)",26,712714,30,4694,3,16,36,1,1,0.638157
5,"pratte_2010_exploring",26,"University students (US)",26,712717,30,4694,3,19,36,2,1,0.974943
5,"pratte_2010_exploring",26,"University students (US)",26,712718,30,4694,3,20,36,2,1,0.976147
5,"pratte_2010_exploring",26,"University students (US)",26,712719,30,4694,3,21,36,1,1,0.736508
5,"pratte_2010_exploring",26,"University students (US)",26,712721,30,4694,3,23,36,2,1,0.698863
5,"pratte_2010_exploring",26,"University students (US)",26,712722,30,4694,3,24,36,2,1,0.905823
5,"pratte_2010_exploring",26,"University students (US)",26,712723,30,4694,3,25,36,1,1,0.625835
5,"pratte_2010_exploring",26,"University students (US)",26,712724,30,4694,3,26,36,2,1,0.985518
5,"pratte_2010_exploring",26,"University students (US)",26,712726,30,4694,3,28,36,2,1,0.71967
5,"pratte_2010_exploring",26,"University students (US)",26,712727,30,4694,3,29,36,2,1,1.704855
5,"pratte_2010_exploring",26,"University students (US)",26,712729,30,4694,3,31,36,2,1,0.890422
5,"pratte_2010_exploring",26,"University students (US)",26,712730,30,4694,3,32,36,1,1,0.749751
5,"pratte_2010_exploring",26,"University students (US)",26,712731,30,4694,3,33,36,1,1,0.789491
5,"pratte_2010_exploring",26,"University students (US)",26,712733,30,4694,3,35,36,1,1,1.106649
5,"pratte_2010_exploring",26,"University students (US)",26,712736,30,4694,3,38,36,1,1,1.673678
5,"pratte_2010_exploring",26,"University students (US)",26,712737,30,4694,3,39,36,1,1,1.497217
5,"pratte_2010_exploring",26,"University students (US)",26,712738,30,4694,3,40,36,1,1,2.664483
5,"pratte_2010_exploring",26,"University students (US)",26,712739,30,4694,3,41,36,1,1,1.74409
5,"pratte_2010_exploring",26,"University students (US)",26,712742,30,4694,3,44,36,2,1,1.26904
5,"pratte_2010_exploring",26,"University students (US)",26,712744,30,4694,3,46,36,1,1,0.857801
5,"pratte_2010_exploring",26,"University students (US)",26,712747,30,4694,3,49,36,1,1,0.70286
5,"pratte_2010_exploring",26,"University students (US)",26,712748,30,4694,3,50,36,2,1,1.24313
5,"pratte_2010_exploring",26,"University students (US)",26,712749,30,4694,3,51,36,2,1,1.562127
5,"pratte_2010_exploring",26,"University students (US)",26,712750,30,4694,3,52,36,2,1,0.888391
5,"pratte_2010_exploring",26,"University students (US)",26,712752,30,4694,3,54,36,1,1,0.680062
5,"pratte_2010_exploring",26,"University students (US)",26,712753,30,4694,3,55,36,1,1,0.811151
5,"pratte_2010_exploring",26,"University students (US)",26,712756,30,4694,3,58,36,2,1,1.694872
5,"pratte_2010_exploring",26,"University students (US)",26,712757,30,4694,3,59,36,1,1,0.883436
5,"pratte_2010_exploring",26,"University students (US)",26,712758,30,4694,3,60,36,2,1,0.80467
5,"pratte_2010_exploring",26,"University students (US)",26,712760,30,4694,3,62,36,1,1,1.635813
5,"pratte_2010_exploring",26,"University students (US)",26,712761,30,4694,3,63,36,2,1,1.193096
5,"pratte_2010_exploring",26,"University students (US)",26,712762,30,4694,3,64,36,2,0,0.925537
5,"pratte_2010_exploring",26,"University students (US)",26,712763,30,4694,3,65,36,1,1,0.864428
5,"pratte_2010_exploring",26,"University students (US)",26,712764,30,4694,3,66,36,2,1,0.914464
5,"pratte_2010_exploring",26,"University students (US)",26,712765,30,4694,3,67,36,1,1,2.020476
5,"pratte_2010_exploring",26,"University students (US)",26,712766,30,4694,3,68,36,1,1,0.721646
5,"pratte_2010_exploring",26,"University students (US)",26,712767,30,4694,3,69,36,1,1,0.904175
5,"pratte_2010_exploring",26,"University students (US)",26,712768,30,4694,3,70,36,2,1,1.125214
5,"pratte_2010_exploring",26,"University students (US)",26,712769,30,4694,3,71,36,1,1,1.06683
5,"pratte_2010_exploring",26,"University students (US)",26,712774,30,4694,4,4,36,2,1,1.468541
5,"pratte_2010_exploring",26,"University students (US)",26,712775,30,4694,4,5,36,2,1,1.057176
5,"pratte_2010_exploring",26,"University students (US)",26,712777,30,4694,4,7,36,1,1,0.75023
5,"pratte_2010_exploring",26,"University students (US)",26,712778,30,4694,4,8,36,2,1,1.050221
5,"pratte_2010_exploring",26,"University students (US)",26,712780,30,4694,4,10,36,2,1,1.052746
5,"pratte_2010_exploring",26,"University students (US)",26,712781,30,4694,4,11,36,1,1,0.67133
5,"pratte_2010_exploring",26,"University students (US)",26,712784,30,4694,4,14,36,2,1,0.794308
5,"pratte_2010_exploring",26,"University students (US)",26,712785,30,4694,4,15,36,1,1,0.697706
5,"pratte_2010_exploring",26,"University students (US)",26,712786,30,4694,4,16,36,2,1,1.240745
5,"pratte_2010_exploring",26,"University students (US)",26,712788,30,4694,4,18,36,2,1,0.867406
5,"pratte_2010_exploring",26,"University students (US)",26,712789,30,4694,4,19,36,1,1,0.693213
5,"pratte_2010_exploring",26,"University students (US)",26,712792,30,4694,4,22,36,2,1,0.834091
5,"pratte_2010_exploring",26,"University students (US)",26,712793,30,4694,4,23,36,2,1,1.084797
5,"pratte_2010_exploring",26,"University students (US)",26,712795,30,4694,4,25,36,2,1,0.996225
5,"pratte_2010_exploring",26,"University students (US)",26,712797,30,4694,4,27,36,1,1,0.951558
5,"pratte_2010_exploring",26,"University students (US)",26,712798,30,4694,4,28,36,1,1,1.01984
5,"pratte_2010_exploring",26,"University students (US)",26,712800,30,4694,4,30,36,2,1,1.075004
5,"pratte_2010_exploring",26,"University students (US)",26,712801,30,4694,4,31,36,2,1,1.396616
5,"pratte_2010_exploring",26,"University students (US)",26,712803,30,4694,4,33,36,1,1,1.021618
5,"pratte_2010_exploring",26,"University students (US)",26,712804,30,4694,4,34,36,1,1,1.672665
5,"pratte_2010_exploring",26,"University students (US)",26,712805,30,4694,4,35,36,2,1,1.236147
5,"pratte_2010_exploring",26,"University students (US)",26,712807,30,4694,4,37,36,1,1,0.591753
5,"pratte_2010_exploring",26,"University students (US)",26,712808,30,4694,4,38,36,2,1,1.474898
5,"pratte_2010_exploring",26,"University students (US)",26,712809,30,4694,4,39,36,1,1,0.954138
5,"pratte_2010_exploring",26,"University students (US)",26,712810,30,4694,4,40,36,1,1,1.626597
5,"pratte_2010_exploring",26,"University students (US)",26,712812,30,4694,4,42,36,2,1,1.137384
5,"pratte_2010_exploring",26,"University students (US)",26,712813,30,4694,4,43,36,1,1,2.504006
5,"pratte_2010_exploring",26,"University students (US)",26,712815,30,4694,4,45,36,2,1,1.063089
5,"pratte_2010_exploring",26,"University students (US)",26,712816,30,4694,4,46,36,2,1,1.295277
5,"pratte_2010_exploring",26,"University students (US)",26,712817,30,4694,4,47,36,1,1,2.294662
5,"pratte_2010_exploring",26,"University students (US)",26,712819,30,4694,4,49,36,1,1,1.50086
5,"pratte_2010_exploring",26,"University students (US)",26,712820,30,4694,4,50,36,1,1,0.865584
5,"pratte_2010_exploring",26,"University students (US)",26,712823,30,4694,4,53,36,2,1,1.678703
5,"pratte_2010_exploring",26,"University students (US)",26,712824,30,4694,4,54,36,1,1,1.432464
5,"pratte_2010_exploring",26,"University students (US)",26,712825,30,4694,4,55,36,1,1,2.9889
5,"pratte_2010_exploring",26,"University students (US)",26,712826,30,4694,4,56,36,2,1,2.602695
5,"pratte_2010_exploring",26,"University students (US)",26,712827,30,4694,4,57,36,2,1,1.230845
5,"pratte_2010_exploring",26,"University students (US)",26,712828,30,4694,4,58,36,2,1,1.734059
5,"pratte_2010_exploring",26,"University students (US)",26,712829,30,4694,4,59,36,1,1,1.679015
5,"pratte_2010_exploring",26,"University students (US)",26,712832,30,4694,4,62,36,1,1,2.014913
5,"pratte_2010_exploring",26,"University students (US)",26,712833,30,4694,4,63,36,1,1,1.051375
5,"pratte_2010_exploring",26,"University students (US)",26,712834,30,4694,4,64,36,2,1,1.168718
5,"pratte_2010_exploring",26,"University students (US)",26,712835,30,4694,4,65,36,2,1,2.421074
5,"pratte_2010_exploring",26,"University students (US)",26,712838,30,4694,4,68,36,2,1,1.74706
5,"pratte_2010_exploring",26,"University students (US)",26,712840,30,4694,4,70,36,1,1,1.091078
5,"pratte_2010_exploring",26,"University students (US)",26,712842,30,4694,4,72,36,1,1,1.240613
5,"pratte_2010_exploring",26,"University students (US)",26,712849,30,4694,5,7,36,1,1,0.988587
5,"pratte_2010_exploring",26,"University students (US)",26,712850,30,4694,5,8,36,2,1,1.527232
5,"pratte_2010_exploring",26,"University students (US)",26,712851,30,4694,5,9,36,1,1,1.114222
5,"pratte_2010_exploring",26,"University students (US)",26,712852,30,4694,5,10,36,2,1,1.584954
5,"pratte_2010_exploring",26,"University students (US)",26,712853,30,4694,5,11,36,2,1,1.149583
5,"pratte_2010_exploring",26,"University students (US)",26,712854,30,4694,5,12,36,2,1,1.346385
5,"pratte_2010_exploring",26,"University students (US)",26,712856,30,4694,5,14,36,1,1,0.531691
5,"pratte_2010_exploring",26,"University students (US)",26,712857,30,4694,5,15,36,2,1,0.966127
5,"pratte_2010_exploring",26,"University students (US)",26,712860,30,4694,5,18,36,2,1,0.965234
5,"pratte_2010_exploring",26,"University students (US)",26,712861,30,4694,5,19,36,1,1,1.391932
5,"pratte_2010_exploring",26,"University students (US)",26,712862,30,4694,5,20,36,1,1,1.987183
5,"pratte_2010_exploring",26,"University students (US)",26,712863,30,4694,5,21,36,2,1,0.916994
5,"pratte_2010_exploring",26,"University students (US)",26,712864,30,4694,5,22,36,2,1,0.909235
5,"pratte_2010_exploring",26,"University students (US)",26,712867,30,4694,5,25,36,1,1,0.724953
5,"pratte_2010_exploring",26,"University students (US)",26,712868,30,4694,5,26,36,2,1,1.097662
5,"pratte_2010_exploring",26,"University students (US)",26,712869,30,4694,5,27,36,2,1,2.131346
5,"pratte_2010_exploring",26,"University students (US)",26,712870,30,4694,5,28,36,1,1,1.20893
5,"pratte_2010_exploring",26,"University students (US)",26,712871,30,4694,5,29,36,2,1,1.228062
5,"pratte_2010_exploring",26,"University students (US)",26,712876,30,4694,5,34,36,2,1,2.163796
5,"pratte_2010_exploring",26,"University students (US)",26,712878,30,4694,5,36,36,1,1,1.193353
5,"pratte_2010_exploring",26,"University students (US)",26,712880,30,4694,5,38,36,2,1,2.455033
5,"pratte_2010_exploring",26,"University students (US)",26,712881,30,4694,5,39,36,1,1,2.321729
5,"pratte_2010_exploring",26,"University students (US)",26,712882,30,4694,5,40,36,2,0,1.659611
5,"pratte_2010_exploring",26,"University students (US)",26,712883,30,4694,5,41,36,2,1,1.81072
5,"pratte_2010_exploring",26,"University students (US)",26,712885,30,4694,5,43,36,2,0,1.491174
5,"pratte_2010_exploring",26,"University students (US)",26,712886,30,4694,5,44,36,2,1,1.284606
5,"pratte_2010_exploring",26,"University students (US)",26,712887,30,4694,5,45,36,1,1,1.729814
5,"pratte_2010_exploring",26,"University students (US)",26,712889,30,4694,5,47,36,1,1,2.047763
5,"pratte_2010_exploring",26,"University students (US)",26,712895,30,4694,5,53,36,1,1,1.129299
5,"pratte_2010_exploring",26,"University students (US)",26,712896,30,4694,5,54,36,1,1,2.322527
5,"pratte_2010_exploring",26,"University students (US)",26,712898,30,4694,5,56,36,2,1,1.450941
5,"pratte_2010_exploring",26,"University students (US)",26,712899,30,4694,5,57,36,1,1,1.299705
5,"pratte_2010_exploring",26,"University students (US)",26,712903,30,4694,5,61,36,1,1,1.1987
5,"pratte_2010_exploring",26,"University students (US)",26,712904,30,4694,5,62,36,1,1,2.625192
5,"pratte_2010_exploring",26,"University students (US)",26,712905,30,4694,5,63,36,1,1,1.290106
5,"pratte_2010_exploring",26,"University students (US)",26,712906,30,4694,5,64,36,1,1,1.167517
5,"pratte_2010_exploring",26,"University students (US)",26,712907,30,4694,5,65,36,2,1,1.238636
5,"pratte_2010_exploring",26,"University students (US)",26,712908,30,4694,5,66,36,1,1,1.330333
5,"pratte_2010_exploring",26,"University students (US)",26,712910,30,4694,5,68,36,2,1,1.349869
5,"pratte_2010_exploring",26,"University students (US)",26,712912,30,4694,5,70,36,1,1,1.434701
5,"pratte_2010_exploring",26,"University students (US)",26,712913,30,4694,5,71,36,1,1,1.151526
5,"pratte_2010_exploring",26,"University students (US)",26,712914,30,4694,5,72,36,1,1,1.10213
5,"pratte_2010_exploring",26,"University students (US)",26,712918,30,4694,6,4,36,1,1,1.219058
5,"pratte_2010_exploring",26,"University students (US)",26,712919,30,4694,6,5,36,2,1,2.943014
5,"pratte_2010_exploring",26,"University students (US)",26,712921,30,4694,6,7,36,2,1,1.11326
5,"pratte_2010_exploring",26,"University students (US)",26,712922,30,4694,6,8,36,2,1,2.020995
5,"pratte_2010_exploring",26,"University students (US)",26,712924,30,4694,6,10,36,1,1,1.984296
5,"pratte_2010_exploring",26,"University students (US)",26,712925,30,4694,6,11,36,2,1,1.886399
5,"pratte_2010_exploring",26,"University students (US)",26,712926,30,4694,6,12,36,1,1,1.265832
5,"pratte_2010_exploring",26,"University students (US)",26,712927,30,4694,6,13,36,1,1,1.450284
5,"pratte_2010_exploring",26,"University students (US)",26,712928,30,4694,6,14,36,1,1,0.873541
5,"pratte_2010_exploring",26,"University students (US)",26,712930,30,4694,6,16,36,1,1,0.926312
5,"pratte_2010_exploring",26,"University students (US)",26,712932,30,4694,6,18,36,1,1,1.116394
5,"pratte_2010_exploring",26,"University students (US)",26,712933,30,4694,6,19,36,2,1,0.976859
5,"pratte_2010_exploring",26,"University students (US)",26,712937,30,4694,6,23,36,1,1,1.083169
5,"pratte_2010_exploring",26,"University students (US)",26,712938,30,4694,6,24,36,2,1,1.466984
5,"pratte_2010_exploring",26,"University students (US)",26,712939,30,4694,6,25,36,2,1,1.780725
5,"pratte_2010_exploring",26,"University students (US)",26,712940,30,4694,6,26,36,2,1,2.502517
5,"pratte_2010_exploring",26,"University students (US)",26,712941,30,4694,6,27,36,2,1,1.373005
5,"pratte_2010_exploring",26,"University students (US)",26,712942,30,4694,6,28,36,1,1,1.083428
5,"pratte_2010_exploring",26,"University students (US)",26,712943,30,4694,6,29,36,1,1,1.458846
5,"pratte_2010_exploring",26,"University students (US)",26,712945,30,4694,6,31,36,2,1,0.702218
5,"pratte_2010_exploring",26,"University students (US)",26,712946,30,4694,6,32,36,2,1,1.167172
5,"pratte_2010_exploring",26,"University students (US)",26,712953,30,4694,6,39,36,1,1,2.218485
5,"pratte_2010_exploring",26,"University students (US)",26,712954,30,4694,6,40,36,2,1,2.364671
5,"pratte_2010_exploring",26,"University students (US)",26,712958,30,4694,6,44,36,2,1,2.969983
5,"pratte_2010_exploring",26,"University students (US)",26,712959,30,4694,6,45,36,2,1,2.923442
5,"pratte_2010_exploring",26,"University students (US)",26,712964,30,4694,6,50,36,1,1,2.409753
5,"pratte_2010_exploring",26,"University students (US)",26,712965,30,4694,6,51,36,1,1,2.491539
5,"pratte_2010_exploring",26,"University students (US)",26,712966,30,4694,6,52,36,1,1,1.110373
5,"pratte_2010_exploring",26,"University students (US)",26,712967,30,4694,6,53,36,2,1,1.17845
5,"pratte_2010_exploring",26,"University students (US)",26,712969,30,4694,6,55,36,1,1,1.609983
5,"pratte_2010_exploring",26,"University students (US)",26,712970,30,4694,6,56,36,1,1,1.609812
5,"pratte_2010_exploring",26,"University students (US)",26,712971,30,4694,6,57,36,2,1,0.878752
5,"pratte_2010_exploring",26,"University students (US)",26,712973,30,4694,6,59,36,2,1,1.077095
5,"pratte_2010_exploring",26,"University students (US)",26,712974,30,4694,6,60,36,2,0,1.055233
5,"pratte_2010_exploring",26,"University students (US)",26,712975,30,4694,6,61,36,1,1,0.867711
5,"pratte_2010_exploring",26,"University students (US)",26,712976,30,4694,6,62,36,1,1,0.724794
5,"pratte_2010_exploring",26,"University students (US)",26,712978,30,4694,6,64,36,1,1,1.125932
5,"pratte_2010_exploring",26,"University students (US)",26,712979,30,4694,6,65,36,2,1,1.401381
5,"pratte_2010_exploring",26,"University students (US)",26,712980,30,4694,6,66,36,2,1,1.509898
5,"pratte_2010_exploring",26,"University students (US)",26,712981,30,4694,6,67,36,2,1,1.606838
5,"pratte_2010_exploring",26,"University students (US)",26,712982,30,4694,6,68,36,2,1,1.858513
5,"pratte_2010_exploring",26,"University students (US)",26,712983,30,4694,6,69,36,2,1,1.201795
5,"pratte_2010_exploring",26,"University students (US)",26,712984,30,4694,6,70,36,1,1,0.876115
5,"pratte_2010_exploring",26,"University students (US)",26,712985,30,4694,6,71,36,1,1,1.181532
5,"pratte_2010_exploring",26,"University students (US)",26,712986,30,4694,6,72,36,1,1,0.749361
5,"pratte_2010_exploring",26,"University students (US)",26,712990,30,4694,7,4,36,1,1,1.354523
5,"pratte_2010_exploring",26,"University students (US)",26,712992,30,4694,7,6,36,1,1,0.833986
5,"pratte_2010_exploring",26,"University students (US)",26,712995,30,4694,7,9,36,1,1,0.797615
5,"pratte_2010_exploring",26,"University students (US)",26,713000,30,4694,7,14,36,2,1,0.985423
5,"pratte_2010_exploring",26,"University students (US)",26,713001,30,4694,7,15,36,1,1,0.847187
5,"pratte_2010_exploring",26,"University students (US)",26,713002,30,4694,7,16,36,2,1,2.471418
5,"pratte_2010_exploring",26,"University students (US)",26,713003,30,4694,7,17,36,2,1,0.72846
5,"pratte_2010_exploring",26,"University students (US)",26,713004,30,4694,7,18,36,2,1,0.897544
5,"pratte_2010_exploring",26,"University students (US)",26,713005,30,4694,7,19,36,1,1,1.334609
5,"pratte_2010_exploring",26,"University students (US)",26,713008,30,4694,7,22,36,2,1,2.534277
5,"pratte_2010_exploring",26,"University students (US)",26,713012,30,4694,7,26,36,2,1,1.863893
5,"pratte_2010_exploring",26,"University students (US)",26,713014,30,4694,7,28,36,1,1,1.283725
5,"pratte_2010_exploring",26,"University students (US)",26,713015,30,4694,7,29,36,2,1,0.491848
5,"pratte_2010_exploring",26,"University students (US)",26,713016,30,4694,7,30,36,2,1,1.214456
5,"pratte_2010_exploring",26,"University students (US)",26,713017,30,4694,7,31,36,2,1,1.152347
5,"pratte_2010_exploring",26,"University students (US)",26,713018,30,4694,7,32,36,2,1,1.170595
5,"pratte_2010_exploring",26,"University students (US)",26,713019,30,4694,7,33,36,2,1,1.286937
5,"pratte_2010_exploring",26,"University students (US)",26,713023,30,4694,7,37,36,1,1,0.951298
5,"pratte_2010_exploring",26,"University students (US)",26,713024,30,4694,7,38,36,2,1,1.1008
5,"pratte_2010_exploring",26,"University students (US)",26,713026,30,4694,7,40,36,1,1,1.03164
5,"pratte_2010_exploring",26,"University students (US)",26,713027,30,4694,7,41,36,2,1,1.101439
5,"pratte_2010_exploring",26,"University students (US)",26,713028,30,4694,7,42,36,1,1,0.934298
5,"pratte_2010_exploring",26,"University students (US)",26,713030,30,4694,7,44,36,1,1,1.140602
5,"pratte_2010_exploring",26,"University students (US)",26,713032,30,4694,7,46,36,2,1,0.973125
5,"pratte_2010_exploring",26,"University students (US)",26,713033,30,4694,7,47,36,2,1,0.871062
5,"pratte_2010_exploring",26,"University students (US)",26,713034,30,4694,7,48,36,1,1,1.142657
5,"pratte_2010_exploring",26,"University students (US)",26,713036,30,4694,7,50,36,1,1,0.893553
5,"pratte_2010_exploring",26,"University students (US)",26,713038,30,4694,7,52,36,1,1,0.858578
5,"pratte_2010_exploring",26,"University students (US)",26,713039,30,4694,7,53,36,1,1,0.765909
5,"pratte_2010_exploring",26,"University students (US)",26,713041,30,4694,7,55,36,1,1,1.060954
5,"pratte_2010_exploring",26,"University students (US)",26,713042,30,4694,7,56,36,2,1,0.86789
5,"pratte_2010_exploring",26,"University students (US)",26,713043,30,4694,7,57,36,2,1,1.091982
5,"pratte_2010_exploring",26,"University students (US)",26,713044,30,4694,7,58,36,1,1,1.170971
5,"pratte_2010_exploring",26,"University students (US)",26,713045,30,4694,7,59,36,2,1,0.859014
5,"pratte_2010_exploring",26,"University students (US)",26,713046,30,4694,7,60,36,2,1,0.923359
5,"pratte_2010_exploring",26,"University students (US)",26,713047,30,4694,7,61,36,1,1,0.78985
5,"pratte_2010_exploring",26,"University students (US)",26,713048,30,4694,7,62,36,1,1,0.727399
5,"pratte_2010_exploring",26,"University students (US)",26,713049,30,4694,7,63,36,1,1,1.061353
5,"pratte_2010_exploring",26,"University students (US)",26,713050,30,4694,7,64,36,2,1,1.069975
5,"pratte_2010_exploring",26,"University students (US)",26,713052,30,4694,7,66,36,2,1,0.760983
5,"pratte_2010_exploring",26,"University students (US)",26,713053,30,4694,7,67,36,2,1,1.291741
5,"pratte_2010_exploring",26,"University students (US)",26,713054,30,4694,7,68,36,1,1,1.256365
5,"pratte_2010_exploring",26,"University students (US)",26,713056,30,4694,7,70,36,1,1,1.879331
5,"pratte_2010_exploring",26,"University students (US)",26,713057,30,4694,7,71,36,2,1,1.149451
5,"pratte_2010_exploring",26,"University students (US)",26,713058,30,4694,7,72,36,2,1,2.262694
5,"pratte_2010_exploring",26,"University students (US)",26,713062,30,4695,1,4,36,1,1,1.062811
5,"pratte_2010_exploring",26,"University students (US)",26,713063,30,4695,1,5,36,2,1,0.808729
5,"pratte_2010_exploring",26,"University students (US)",26,713064,30,4695,1,6,36,2,1,0.878702
5,"pratte_2010_exploring",26,"University students (US)",26,713065,30,4695,1,7,36,1,1,0.697356
5,"pratte_2010_exploring",26,"University students (US)",26,713066,30,4695,1,8,36,1,1,0.812488
5,"pratte_2010_exploring",26,"University students (US)",26,713067,30,4695,1,9,36,2,1,0.715676
5,"pratte_2010_exploring",26,"University students (US)",26,713068,30,4695,1,10,36,1,1,0.514776
5,"pratte_2010_exploring",26,"University students (US)",26,713069,30,4695,1,11,36,2,1,0.708771
5,"pratte_2010_exploring",26,"University students (US)",26,713072,30,4695,1,14,36,1,1,0.746974
5,"pratte_2010_exploring",26,"University students (US)",26,713073,30,4695,1,15,36,1,1,0.560792
5,"pratte_2010_exploring",26,"University students (US)",26,713075,30,4695,1,17,36,1,1,0.737055
5,"pratte_2010_exploring",26,"University students (US)",26,713077,30,4695,1,19,36,2,1,0.713147
5,"pratte_2010_exploring",26,"University students (US)",26,713080,30,4695,1,22,36,2,1,1.036385
5,"pratte_2010_exploring",26,"University students (US)",26,713081,30,4695,1,23,36,2,1,0.986093
5,"pratte_2010_exploring",26,"University students (US)",26,713083,30,4695,1,25,36,1,1,0.598474
5,"pratte_2010_exploring",26,"University students (US)",26,713084,30,4695,1,26,36,1,1,0.677404
5,"pratte_2010_exploring",26,"University students (US)",26,713088,30,4695,1,30,36,2,1,0.648928
5,"pratte_2010_exploring",26,"University students (US)",26,713089,30,4695,1,31,36,2,1,0.545019
5,"pratte_2010_exploring",26,"University students (US)",26,713091,30,4695,1,33,36,1,1,0.520333
5,"pratte_2010_exploring",26,"University students (US)",26,713093,30,4695,1,35,36,1,1,1.058126
5,"pratte_2010_exploring",26,"University students (US)",26,713094,30,4695,1,36,36,1,1,0.69005
5,"pratte_2010_exploring",26,"University students (US)",26,713096,30,4695,1,38,36,2,1,1.560564
5,"pratte_2010_exploring",26,"University students (US)",26,713097,30,4695,1,39,36,1,1,0.532109
5,"pratte_2010_exploring",26,"University students (US)",26,713098,30,4695,1,40,36,2,0,0.628176
5,"pratte_2010_exploring",26,"University students (US)",26,713099,30,4695,1,41,36,1,1,0.793908
5,"pratte_2010_exploring",26,"University students (US)",26,713100,30,4695,1,42,36,2,1,1.251167
5,"pratte_2010_exploring",26,"University students (US)",26,713101,30,4695,1,43,36,2,1,0.846228
5,"pratte_2010_exploring",26,"University students (US)",26,713103,30,4695,1,45,36,2,1,0.610751
5,"pratte_2010_exploring",26,"University students (US)",26,713104,30,4695,1,46,36,2,1,1.204547
5,"pratte_2010_exploring",26,"University students (US)",26,713105,30,4695,1,47,36,2,1,0.93135
5,"pratte_2010_exploring",26,"University students (US)",26,713106,30,4695,1,48,36,2,1,0.739788
5,"pratte_2010_exploring",26,"University students (US)",26,713107,30,4695,1,49,36,2,1,0.751318
5,"pratte_2010_exploring",26,"University students (US)",26,713108,30,4695,1,50,36,1,1,0.699989
5,"pratte_2010_exploring",26,"University students (US)",26,713110,30,4695,1,52,36,1,1,0.764548
5,"pratte_2010_exploring",26,"University students (US)",26,713111,30,4695,1,53,36,2,1,0.786427
5,"pratte_2010_exploring",26,"University students (US)",26,713112,30,4695,1,54,36,1,1,0.696244
5,"pratte_2010_exploring",26,"University students (US)",26,713116,30,4695,1,58,36,2,1,0.874654
5,"pratte_2010_exploring",26,"University students (US)",26,713117,30,4695,1,59,36,2,1,0.765505
5,"pratte_2010_exploring",26,"University students (US)",26,713118,30,4695,1,60,36,1,1,0.537574
5,"pratte_2010_exploring",26,"University students (US)",26,713119,30,4695,1,61,36,1,1,0.696437
5,"pratte_2010_exploring",26,"University students (US)",26,713123,30,4695,1,65,36,2,1,0.969289
5,"pratte_2010_exploring",26,"University students (US)",26,713126,30,4695,1,68,36,2,1,0.722143
5,"pratte_2010_exploring",26,"University students (US)",26,713128,30,4695,1,70,36,1,1,0.787948
5,"pratte_2010_exploring",26,"University students (US)",26,713129,30,4695,1,71,36,1,1,0.77932
5,"pratte_2010_exploring",26,"University students (US)",26,713130,30,4695,1,72,36,1,1,0.730197
5,"pratte_2010_exploring",26,"University students (US)",26,713134,30,4695,2,4,36,2,1,0.560371
5,"pratte_2010_exploring",26,"University students (US)",26,713135,30,4695,2,5,36,1,1,0.466188
5,"pratte_2010_exploring",26,"University students (US)",26,713136,30,4695,2,6,36,2,1,0.707049
5,"pratte_2010_exploring",26,"University students (US)",26,713137,30,4695,2,7,36,1,1,0.637499
5,"pratte_2010_exploring",26,"University students (US)",26,713140,30,4695,2,10,36,1,0,0.557386
5,"pratte_2010_exploring",26,"University students (US)",26,713141,30,4695,2,11,36,2,1,1.387015
5,"pratte_2010_exploring",26,"University students (US)",26,713143,30,4695,2,13,36,2,1,0.777971
5,"pratte_2010_exploring",26,"University students (US)",26,713147,30,4695,2,17,36,2,1,0.698602
5,"pratte_2010_exploring",26,"University students (US)",26,713148,30,4695,2,18,36,1,1,0.545163
5,"pratte_2010_exploring",26,"University students (US)",26,713150,30,4695,2,20,36,2,1,0.73367
5,"pratte_2010_exploring",26,"University students (US)",26,713151,30,4695,2,21,36,1,1,0.479339
5,"pratte_2010_exploring",26,"University students (US)",26,713154,30,4695,2,24,36,2,1,0.566506
5,"pratte_2010_exploring",26,"University students (US)",26,713155,30,4695,2,25,36,2,1,0.379944
5,"pratte_2010_exploring",26,"University students (US)",26,713156,30,4695,2,26,36,2,1,0.671812
5,"pratte_2010_exploring",26,"University students (US)",26,713158,30,4695,2,28,36,2,1,0.634772
5,"pratte_2010_exploring",26,"University students (US)",26,713159,30,4695,2,29,36,2,1,0.732302
5,"pratte_2010_exploring",26,"University students (US)",26,713160,30,4695,2,30,36,2,1,0.98213
5,"pratte_2010_exploring",26,"University students (US)",26,713161,30,4695,2,31,36,1,1,0.527628
5,"pratte_2010_exploring",26,"University students (US)",26,713162,30,4695,2,32,36,1,1,0.497358
5,"pratte_2010_exploring",26,"University students (US)",26,713165,30,4695,2,35,36,1,1,0.464486
5,"pratte_2010_exploring",26,"University students (US)",26,713166,30,4695,2,36,36,2,1,0.914662
5,"pratte_2010_exploring",26,"University students (US)",26,713167,30,4695,2,37,36,2,1,0.637502
5,"pratte_2010_exploring",26,"University students (US)",26,713169,30,4695,2,39,36,1,1,0.692665
5,"pratte_2010_exploring",26,"University students (US)",26,713170,30,4695,2,40,36,1,1,0.748098
5,"pratte_2010_exploring",26,"University students (US)",26,713171,30,4695,2,41,36,1,1,0.349367
5,"pratte_2010_exploring",26,"University students (US)",26,713173,30,4695,2,43,36,1,1,0.858647
5,"pratte_2010_exploring",26,"University students (US)",26,713174,30,4695,2,44,36,1,1,1.130658
5,"pratte_2010_exploring",26,"University students (US)",26,713175,30,4695,2,45,36,2,1,1.271449
5,"pratte_2010_exploring",26,"University students (US)",26,713176,30,4695,2,46,36,1,1,0.538153
5,"pratte_2010_exploring",26,"University students (US)",26,713178,30,4695,2,48,36,2,1,0.887111
5,"pratte_2010_exploring",26,"University students (US)",26,713179,30,4695,2,49,36,1,1,0.431669
5,"pratte_2010_exploring",26,"University students (US)",26,713181,30,4695,2,51,36,2,1,0.616419
5,"pratte_2010_exploring",26,"University students (US)",26,713183,30,4695,2,53,36,2,1,0.598069
5,"pratte_2010_exploring",26,"University students (US)",26,713184,30,4695,2,54,36,2,1,0.633565
5,"pratte_2010_exploring",26,"University students (US)",26,713185,30,4695,2,55,36,1,1,1.335572
5,"pratte_2010_exploring",26,"University students (US)",26,713186,30,4695,2,56,36,1,1,0.494867
5,"pratte_2010_exploring",26,"University students (US)",26,713187,30,4695,2,57,36,2,1,0.713729
5,"pratte_2010_exploring",26,"University students (US)",26,713188,30,4695,2,58,36,2,1,0.5306
5,"pratte_2010_exploring",26,"University students (US)",26,713190,30,4695,2,60,36,2,1,0.515903
5,"pratte_2010_exploring",26,"University students (US)",26,713191,30,4695,2,61,36,1,1,0.87049
5,"pratte_2010_exploring",26,"University students (US)",26,713193,30,4695,2,63,36,1,1,0.559398
5,"pratte_2010_exploring",26,"University students (US)",26,713194,30,4695,2,64,36,1,1,0.799406
5,"pratte_2010_exploring",26,"University students (US)",26,713198,30,4695,2,68,36,1,1,0.522109
5,"pratte_2010_exploring",26,"University students (US)",26,713199,30,4695,2,69,36,2,1,0.946212
5,"pratte_2010_exploring",26,"University students (US)",26,713200,30,4695,2,70,36,1,1,0.45797
5,"pratte_2010_exploring",26,"University students (US)",26,713201,30,4695,2,71,36,1,1,0.482998
5,"pratte_2010_exploring",26,"University students (US)",26,713207,30,4695,3,5,36,2,1,0.731322
5,"pratte_2010_exploring",26,"University students (US)",26,713209,30,4695,3,7,36,2,1,0.834582
5,"pratte_2010_exploring",26,"University students (US)",26,713212,30,4695,3,10,36,2,1,0.549453
5,"pratte_2010_exploring",26,"University students (US)",26,713213,30,4695,3,11,36,2,1,0.726647
5,"pratte_2010_exploring",26,"University students (US)",26,713214,30,4695,3,12,36,1,1,0.744225
5,"pratte_2010_exploring",26,"University students (US)",26,713216,30,4695,3,14,36,1,1,0.556535
5,"pratte_2010_exploring",26,"University students (US)",26,713218,30,4695,3,16,36,1,1,0.472635
5,"pratte_2010_exploring",26,"University students (US)",26,713221,30,4695,3,19,36,2,1,0.374733
5,"pratte_2010_exploring",26,"University students (US)",26,713222,30,4695,3,20,36,2,1,0.715277
5,"pratte_2010_exploring",26,"University students (US)",26,713223,30,4695,3,21,36,1,1,0.770158
5,"pratte_2010_exploring",26,"University students (US)",26,713225,30,4695,3,23,36,2,1,0.465948
5,"pratte_2010_exploring",26,"University students (US)",26,713226,30,4695,3,24,36,2,1,1.165468
5,"pratte_2010_exploring",26,"University students (US)",26,713227,30,4695,3,25,36,1,1,0.658256
5,"pratte_2010_exploring",26,"University students (US)",26,713228,30,4695,3,26,36,2,1,0.414019
5,"pratte_2010_exploring",26,"University students (US)",26,713230,30,4695,3,28,36,2,1,0.532879
5,"pratte_2010_exploring",26,"University students (US)",26,713231,30,4695,3,29,36,2,1,0.493292
5,"pratte_2010_exploring",26,"University students (US)",26,713233,30,4695,3,31,36,2,1,0.658218
5,"pratte_2010_exploring",26,"University students (US)",26,713234,30,4695,3,32,36,1,1,0.401504
5,"pratte_2010_exploring",26,"University students (US)",26,713235,30,4695,3,33,36,1,1,0.402384
5,"pratte_2010_exploring",26,"University students (US)",26,713237,30,4695,3,35,36,1,1,0.742147
5,"pratte_2010_exploring",26,"University students (US)",26,713239,30,4695,3,37,36,2,1,0.615768
5,"pratte_2010_exploring",26,"University students (US)",26,713240,30,4695,3,38,36,1,1,0.363737
5,"pratte_2010_exploring",26,"University students (US)",26,713241,30,4695,3,39,36,1,1,0.866782
5,"pratte_2010_exploring",26,"University students (US)",26,713242,30,4695,3,40,36,1,1,0.567417
5,"pratte_2010_exploring",26,"University students (US)",26,713243,30,4695,3,41,36,1,1,0.758374
5,"pratte_2010_exploring",26,"University students (US)",26,713246,30,4695,3,44,36,2,1,0.797601
5,"pratte_2010_exploring",26,"University students (US)",26,713248,30,4695,3,46,36,1,1,0.653743
5,"pratte_2010_exploring",26,"University students (US)",26,713251,30,4695,3,49,36,1,1,0.973574
5,"pratte_2010_exploring",26,"University students (US)",26,713252,30,4695,3,50,36,2,1,1.225984
5,"pratte_2010_exploring",26,"University students (US)",26,713253,30,4695,3,51,36,2,1,0.464209
5,"pratte_2010_exploring",26,"University students (US)",26,713254,30,4695,3,52,36,2,1,0.694297
5,"pratte_2010_exploring",26,"University students (US)",26,713256,30,4695,3,54,36,1,1,0.580567
5,"pratte_2010_exploring",26,"University students (US)",26,713257,30,4695,3,55,36,1,1,0.763116
5,"pratte_2010_exploring",26,"University students (US)",26,713260,30,4695,3,58,36,2,1,0.552177
5,"pratte_2010_exploring",26,"University students (US)",26,713261,30,4695,3,59,36,1,1,0.686069
5,"pratte_2010_exploring",26,"University students (US)",26,713262,30,4695,3,60,36,2,1,0.669814
5,"pratte_2010_exploring",26,"University students (US)",26,713264,30,4695,3,62,36,1,1,0.619055
5,"pratte_2010_exploring",26,"University students (US)",26,713265,30,4695,3,63,36,2,1,0.809189
5,"pratte_2010_exploring",26,"University students (US)",26,713266,30,4695,3,64,36,2,1,0.663429
5,"pratte_2010_exploring",26,"University students (US)",26,713267,30,4695,3,65,36,1,1,0.793706
5,"pratte_2010_exploring",26,"University students (US)",26,713268,30,4695,3,66,36,2,1,1.040357
5,"pratte_2010_exploring",26,"University students (US)",26,713269,30,4695,3,67,36,1,1,0.523267
5,"pratte_2010_exploring",26,"University students (US)",26,713270,30,4695,3,68,36,1,1,0.497236
5,"pratte_2010_exploring",26,"University students (US)",26,713271,30,4695,3,69,36,1,1,1.200299
5,"pratte_2010_exploring",26,"University students (US)",26,713272,30,4695,3,70,36,2,1,0.682943
5,"pratte_2010_exploring",26,"University students (US)",26,713273,30,4695,3,71,36,1,1,1.018414
5,"pratte_2010_exploring",26,"University students (US)",26,713278,30,4695,4,4,36,2,1,0.739715
5,"pratte_2010_exploring",26,"University students (US)",26,713279,30,4695,4,5,36,2,1,0.827534
5,"pratte_2010_exploring",26,"University students (US)",26,713281,30,4695,4,7,36,1,1,0.812763
5,"pratte_2010_exploring",26,"University students (US)",26,713282,30,4695,4,8,36,2,1,0.413923
5,"pratte_2010_exploring",26,"University students (US)",26,713284,30,4695,4,10,36,2,1,0.764706
5,"pratte_2010_exploring",26,"University students (US)",26,713285,30,4695,4,11,36,1,1,0.656436
5,"pratte_2010_exploring",26,"University students (US)",26,713288,30,4695,4,14,36,2,1,0.735273
5,"pratte_2010_exploring",26,"University students (US)",26,713289,30,4695,4,15,36,1,1,0.747658
5,"pratte_2010_exploring",26,"University students (US)",26,713290,30,4695,4,16,36,2,1,0.445078
5,"pratte_2010_exploring",26,"University students (US)",26,713292,30,4695,4,18,36,2,1,1.074958
5,"pratte_2010_exploring",26,"University students (US)",26,713293,30,4695,4,19,36,1,1,0.62242
5,"pratte_2010_exploring",26,"University students (US)",26,713296,30,4695,4,22,36,2,1,0.476094
5,"pratte_2010_exploring",26,"University students (US)",26,713297,30,4695,4,23,36,2,1,0.623404
5,"pratte_2010_exploring",26,"University students (US)",26,713299,30,4695,4,25,36,2,1,1.010062
5,"pratte_2010_exploring",26,"University students (US)",26,713301,30,4695,4,27,36,1,1,0.727251
5,"pratte_2010_exploring",26,"University students (US)",26,713302,30,4695,4,28,36,1,1,0.877811
5,"pratte_2010_exploring",26,"University students (US)",26,713304,30,4695,4,30,36,2,1,0.810038
5,"pratte_2010_exploring",26,"University students (US)",26,713305,30,4695,4,31,36,2,1,1.197188
5,"pratte_2010_exploring",26,"University students (US)",26,713307,30,4695,4,33,36,1,1,0.565631
5,"pratte_2010_exploring",26,"University students (US)",26,713308,30,4695,4,34,36,1,1,0.653576
5,"pratte_2010_exploring",26,"University students (US)",26,713309,30,4695,4,35,36,2,1,0.873054
5,"pratte_2010_exploring",26,"University students (US)",26,713311,30,4695,4,37,36,1,1,0.629722
5,"pratte_2010_exploring",26,"University students (US)",26,713312,30,4695,4,38,36,2,1,0.671004
5,"pratte_2010_exploring",26,"University students (US)",26,713313,30,4695,4,39,36,1,1,0.725106
5,"pratte_2010_exploring",26,"University students (US)",26,713314,30,4695,4,40,36,1,1,0.678236
5,"pratte_2010_exploring",26,"University students (US)",26,713316,30,4695,4,42,36,2,1,0.649498
5,"pratte_2010_exploring",26,"University students (US)",26,713317,30,4695,4,43,36,1,1,0.738802
5,"pratte_2010_exploring",26,"University students (US)",26,713319,30,4695,4,45,36,2,1,0.429186
5,"pratte_2010_exploring",26,"University students (US)",26,713320,30,4695,4,46,36,2,1,0.722994
5,"pratte_2010_exploring",26,"University students (US)",26,713321,30,4695,4,47,36,1,1,0.738348
5,"pratte_2010_exploring",26,"University students (US)",26,713323,30,4695,4,49,36,1,1,0.889804
5,"pratte_2010_exploring",26,"University students (US)",26,713324,30,4695,4,50,36,1,1,0.669728
5,"pratte_2010_exploring",26,"University students (US)",26,713327,30,4695,4,53,36,2,1,0.741061
5,"pratte_2010_exploring",26,"University students (US)",26,713328,30,4695,4,54,36,1,1,0.813191
5,"pratte_2010_exploring",26,"University students (US)",26,713329,30,4695,4,55,36,1,1,0.449468
5,"pratte_2010_exploring",26,"University students (US)",26,713330,30,4695,4,56,36,2,1,0.683424
5,"pratte_2010_exploring",26,"University students (US)",26,713331,30,4695,4,57,36,2,1,0.988626
5,"pratte_2010_exploring",26,"University students (US)",26,713332,30,4695,4,58,36,2,1,1.419723
5,"pratte_2010_exploring",26,"University students (US)",26,713333,30,4695,4,59,36,1,1,0.580755
5,"pratte_2010_exploring",26,"University students (US)",26,713336,30,4695,4,62,36,1,1,0.470807
5,"pratte_2010_exploring",26,"University students (US)",26,713337,30,4695,4,63,36,1,1,0.633699
5,"pratte_2010_exploring",26,"University students (US)",26,713338,30,4695,4,64,36,2,1,0.846008
5,"pratte_2010_exploring",26,"University students (US)",26,713339,30,4695,4,65,36,2,1,0.679888
5,"pratte_2010_exploring",26,"University students (US)",26,713342,30,4695,4,68,36,2,1,0.697175
5,"pratte_2010_exploring",26,"University students (US)",26,713344,30,4695,4,70,36,1,1,0.484132
5,"pratte_2010_exploring",26,"University students (US)",26,713346,30,4695,4,72,36,1,1,0.703219
5,"pratte_2010_exploring",26,"University students (US)",26,713350,30,4695,5,4,36,2,1,0.82607
5,"pratte_2010_exploring",26,"University students (US)",26,713353,30,4695,5,7,36,1,1,0.676081
5,"pratte_2010_exploring",26,"University students (US)",26,713354,30,4695,5,8,36,2,1,0.494417
5,"pratte_2010_exploring",26,"University students (US)",26,713355,30,4695,5,9,36,1,1,1.013194
5,"pratte_2010_exploring",26,"University students (US)",26,713356,30,4695,5,10,36,2,1,0.835946
5,"pratte_2010_exploring",26,"University students (US)",26,713357,30,4695,5,11,36,2,1,0.54278
5,"pratte_2010_exploring",26,"University students (US)",26,713358,30,4695,5,12,36,2,1,0.954754
5,"pratte_2010_exploring",26,"University students (US)",26,713360,30,4695,5,14,36,1,1,0.406114
5,"pratte_2010_exploring",26,"University students (US)",26,713361,30,4695,5,15,36,2,1,0.406984
5,"pratte_2010_exploring",26,"University students (US)",26,713364,30,4695,5,18,36,2,1,0.481703
5,"pratte_2010_exploring",26,"University students (US)",26,713365,30,4695,5,19,36,1,1,0.470894
5,"pratte_2010_exploring",26,"University students (US)",26,713366,30,4695,5,20,36,1,1,0.530662
5,"pratte_2010_exploring",26,"University students (US)",26,713367,30,4695,5,21,36,2,0,0.825011
5,"pratte_2010_exploring",26,"University students (US)",26,713368,30,4695,5,22,36,2,1,0.960675
5,"pratte_2010_exploring",26,"University students (US)",26,713371,30,4695,5,25,36,1,1,0.925455
5,"pratte_2010_exploring",26,"University students (US)",26,713372,30,4695,5,26,36,2,1,0.934194
5,"pratte_2010_exploring",26,"University students (US)",26,713373,30,4695,5,27,36,2,1,1.04312
5,"pratte_2010_exploring",26,"University students (US)",26,713374,30,4695,5,28,36,1,1,0.67551
5,"pratte_2010_exploring",26,"University students (US)",26,713375,30,4695,5,29,36,2,1,0.637135
5,"pratte_2010_exploring",26,"University students (US)",26,713380,30,4695,5,34,36,2,1,0.7282
5,"pratte_2010_exploring",26,"University students (US)",26,713382,30,4695,5,36,36,1,1,0.455949
5,"pratte_2010_exploring",26,"University students (US)",26,713383,30,4695,5,37,36,2,1,0.366088
5,"pratte_2010_exploring",26,"University students (US)",26,713384,30,4695,5,38,36,2,1,1.24155
5,"pratte_2010_exploring",26,"University students (US)",26,713385,30,4695,5,39,36,1,1,0.581971
5,"pratte_2010_exploring",26,"University students (US)",26,713386,30,4695,5,40,36,2,1,0.770185
5,"pratte_2010_exploring",26,"University students (US)",26,713387,30,4695,5,41,36,2,1,0.922779
5,"pratte_2010_exploring",26,"University students (US)",26,713388,30,4695,5,42,36,1,1,0.560381
5,"pratte_2010_exploring",26,"University students (US)",26,713389,30,4695,5,43,36,2,1,0.665923
5,"pratte_2010_exploring",26,"University students (US)",26,713390,30,4695,5,44,36,2,1,0.497355
5,"pratte_2010_exploring",26,"University students (US)",26,713391,30,4695,5,45,36,1,1,1.820814
5,"pratte_2010_exploring",26,"University students (US)",26,713393,30,4695,5,47,36,1,1,0.847057
5,"pratte_2010_exploring",26,"University students (US)",26,713399,30,4695,5,53,36,1,1,0.566879
5,"pratte_2010_exploring",26,"University students (US)",26,713400,30,4695,5,54,36,1,1,0.812652
5,"pratte_2010_exploring",26,"University students (US)",26,713402,30,4695,5,56,36,2,1,0.522648
5,"pratte_2010_exploring",26,"University students (US)",26,713403,30,4695,5,57,36,1,1,0.578829
5,"pratte_2010_exploring",26,"University students (US)",26,713407,30,4695,5,61,36,1,1,0.592247
5,"pratte_2010_exploring",26,"University students (US)",26,713408,30,4695,5,62,36,1,1,0.656387
5,"pratte_2010_exploring",26,"University students (US)",26,713409,30,4695,5,63,36,1,1,0.545373
5,"pratte_2010_exploring",26,"University students (US)",26,713410,30,4695,5,64,36,1,1,0.52256
5,"pratte_2010_exploring",26,"University students (US)",26,713411,30,4695,5,65,36,2,1,0.89972
5,"pratte_2010_exploring",26,"University students (US)",26,713412,30,4695,5,66,36,1,1,0.650029
5,"pratte_2010_exploring",26,"University students (US)",26,713414,30,4695,5,68,36,2,1,0.642075
5,"pratte_2010_exploring",26,"University students (US)",26,713416,30,4695,5,70,36,1,1,0.542253
5,"pratte_2010_exploring",26,"University students (US)",26,713417,30,4695,5,71,36,1,1,0.669037
5,"pratte_2010_exploring",26,"University students (US)",26,713418,30,4695,5,72,36,1,1,0.743816
5,"pratte_2010_exploring",26,"University students (US)",26,713422,30,4695,6,4,36,1,1,0.464872
5,"pratte_2010_exploring",26,"University students (US)",26,713423,30,4695,6,5,36,2,1,0.969748
5,"pratte_2010_exploring",26,"University students (US)",26,713424,30,4695,6,6,36,2,1,0.535869
5,"pratte_2010_exploring",26,"University students (US)",26,713425,30,4695,6,7,36,2,1,0.43238
5,"pratte_2010_exploring",26,"University students (US)",26,713426,30,4695,6,8,36,2,1,0.447382
5,"pratte_2010_exploring",26,"University students (US)",26,713428,30,4695,6,10,36,1,1,0.502994
5,"pratte_2010_exploring",26,"University students (US)",26,713429,30,4695,6,11,36,2,1,0.573535
5,"pratte_2010_exploring",26,"University students (US)",26,713430,30,4695,6,12,36,1,1,0.533738
5,"pratte_2010_exploring",26,"University students (US)",26,713431,30,4695,6,13,36,1,1,0.646848
5,"pratte_2010_exploring",26,"University students (US)",26,713432,30,4695,6,14,36,1,1,0.711881
5,"pratte_2010_exploring",26,"University students (US)",26,713434,30,4695,6,16,36,1,1,0.415488
5,"pratte_2010_exploring",26,"University students (US)",26,713436,30,4695,6,18,36,1,1,0.474027
5,"pratte_2010_exploring",26,"University students (US)",26,713437,30,4695,6,19,36,2,1,0.469427
5,"pratte_2010_exploring",26,"University students (US)",26,713441,30,4695,6,23,36,1,1,1.083993
5,"pratte_2010_exploring",26,"University students (US)",26,713442,30,4695,6,24,36,2,1,0.69508
5,"pratte_2010_exploring",26,"University students (US)",26,713443,30,4695,6,25,36,2,1,1.715338
5,"pratte_2010_exploring",26,"University students (US)",26,713444,30,4695,6,26,36,2,1,0.412374
5,"pratte_2010_exploring",26,"University students (US)",26,713445,30,4695,6,27,36,2,1,0.565062
5,"pratte_2010_exploring",26,"University students (US)",26,713446,30,4695,6,28,36,1,1,0.498649
5,"pratte_2010_exploring",26,"University students (US)",26,713447,30,4695,6,29,36,1,1,0.508762
5,"pratte_2010_exploring",26,"University students (US)",26,713449,30,4695,6,31,36,2,1,0.433139
5,"pratte_2010_exploring",26,"University students (US)",26,713450,30,4695,6,32,36,2,1,1.448837
5,"pratte_2010_exploring",26,"University students (US)",26,713457,30,4695,6,39,36,1,1,0.523217
5,"pratte_2010_exploring",26,"University students (US)",26,713458,30,4695,6,40,36,2,1,0.712639
5,"pratte_2010_exploring",26,"University students (US)",26,713462,30,4695,6,44,36,2,1,0.437701
5,"pratte_2010_exploring",26,"University students (US)",26,713463,30,4695,6,45,36,2,1,0.498129
5,"pratte_2010_exploring",26,"University students (US)",26,713468,30,4695,6,50,36,1,1,0.507299
5,"pratte_2010_exploring",26,"University students (US)",26,713469,30,4695,6,51,36,1,1,0.612389
5,"pratte_2010_exploring",26,"University students (US)",26,713470,30,4695,6,52,36,1,1,0.827481
5,"pratte_2010_exploring",26,"University students (US)",26,713471,30,4695,6,53,36,2,1,0.903615
5,"pratte_2010_exploring",26,"University students (US)",26,713473,30,4695,6,55,36,1,1,0.48081
5,"pratte_2010_exploring",26,"University students (US)",26,713474,30,4695,6,56,36,1,1,0.853069
5,"pratte_2010_exploring",26,"University students (US)",26,713475,30,4695,6,57,36,2,1,0.610067
5,"pratte_2010_exploring",26,"University students (US)",26,713477,30,4695,6,59,36,2,1,0.50411
5,"pratte_2010_exploring",26,"University students (US)",26,713478,30,4695,6,60,36,2,1,0.925055
5,"pratte_2010_exploring",26,"University students (US)",26,713479,30,4695,6,61,36,1,1,0.584528
5,"pratte_2010_exploring",26,"University students (US)",26,713480,30,4695,6,62,36,1,1,0.508108
5,"pratte_2010_exploring",26,"University students (US)",26,713482,30,4695,6,64,36,1,1,0.835338
5,"pratte_2010_exploring",26,"University students (US)",26,713483,30,4695,6,65,36,2,1,1.133926
5,"pratte_2010_exploring",26,"University students (US)",26,713484,30,4695,6,66,36,2,1,0.614232
5,"pratte_2010_exploring",26,"University students (US)",26,713485,30,4695,6,67,36,2,1,0.607007
5,"pratte_2010_exploring",26,"University students (US)",26,713486,30,4695,6,68,36,2,1,0.706881
5,"pratte_2010_exploring",26,"University students (US)",26,713487,30,4695,6,69,36,2,1,0.866719
5,"pratte_2010_exploring",26,"University students (US)",26,713488,30,4695,6,70,36,1,1,0.692786
5,"pratte_2010_exploring",26,"University students (US)",26,713489,30,4695,6,71,36,1,1,1.289404
5,"pratte_2010_exploring",26,"University students (US)",26,713490,30,4695,6,72,36,1,1,0.485215
5,"pratte_2010_exploring",26,"University students (US)",26,713494,30,4695,7,4,36,1,1,0.428821
5,"pratte_2010_exploring",26,"University students (US)",26,713496,30,4695,7,6,36,1,1,0.315914
5,"pratte_2010_exploring",26,"University students (US)",26,713499,30,4695,7,9,36,1,1,0.503847
5,"pratte_2010_exploring",26,"University students (US)",26,713504,30,4695,7,14,36,2,1,0.55629
5,"pratte_2010_exploring",26,"University students (US)",26,713505,30,4695,7,15,36,1,1,0.599501
5,"pratte_2010_exploring",26,"University students (US)",26,713506,30,4695,7,16,36,2,1,0.760479
5,"pratte_2010_exploring",26,"University students (US)",26,713507,30,4695,7,17,36,2,1,0.6993
5,"pratte_2010_exploring",26,"University students (US)",26,713508,30,4695,7,18,36,2,1,0.69628
5,"pratte_2010_exploring",26,"University students (US)",26,713509,30,4695,7,19,36,1,1,0.522912
5,"pratte_2010_exploring",26,"University students (US)",26,713512,30,4695,7,22,36,2,1,0.915048
5,"pratte_2010_exploring",26,"University students (US)",26,713514,30,4695,7,24,36,1,1,0.602503
5,"pratte_2010_exploring",26,"University students (US)",26,713516,30,4695,7,26,36,2,1,0.515401
5,"pratte_2010_exploring",26,"University students (US)",26,713518,30,4695,7,28,36,1,1,0.568749
5,"pratte_2010_exploring",26,"University students (US)",26,713519,30,4695,7,29,36,2,1,0.564691
5,"pratte_2010_exploring",26,"University students (US)",26,713520,30,4695,7,30,36,2,1,1.084469
5,"pratte_2010_exploring",26,"University students (US)",26,713521,30,4695,7,31,36,2,1,0.915291
5,"pratte_2010_exploring",26,"University students (US)",26,713522,30,4695,7,32,36,2,1,0.552884
5,"pratte_2010_exploring",26,"University students (US)",26,713523,30,4695,7,33,36,2,1,0.863669
5,"pratte_2010_exploring",26,"University students (US)",26,713527,30,4695,7,37,36,1,0,0.553038
5,"pratte_2010_exploring",26,"University students (US)",26,713528,30,4695,7,38,36,2,1,0.511538
5,"pratte_2010_exploring",26,"University students (US)",26,713530,30,4695,7,40,36,1,1,0.464943
5,"pratte_2010_exploring",26,"University students (US)",26,713531,30,4695,7,41,36,2,1,0.587306
5,"pratte_2010_exploring",26,"University students (US)",26,713532,30,4695,7,42,36,1,1,0.661584
5,"pratte_2010_exploring",26,"University students (US)",26,713534,30,4695,7,44,36,1,1,0.471242
5,"pratte_2010_exploring",26,"University students (US)",26,713536,30,4695,7,46,36,2,1,1.013705
5,"pratte_2010_exploring",26,"University students (US)",26,713537,30,4695,7,47,36,2,1,0.605771
5,"pratte_2010_exploring",26,"University students (US)",26,713538,30,4695,7,48,36,1,1,0.594154
5,"pratte_2010_exploring",26,"University students (US)",26,713540,30,4695,7,50,36,1,1,0.56106
5,"pratte_2010_exploring",26,"University students (US)",26,713542,30,4695,7,52,36,1,1,0.661798
5,"pratte_2010_exploring",26,"University students (US)",26,713543,30,4695,7,53,36,1,1,0.52427
5,"pratte_2010_exploring",26,"University students (US)",26,713545,30,4695,7,55,36,1,1,0.662389
5,"pratte_2010_exploring",26,"University students (US)",26,713546,30,4695,7,56,36,2,1,0.834366
5,"pratte_2010_exploring",26,"University students (US)",26,713547,30,4695,7,57,36,2,1,0.861672
5,"pratte_2010_exploring",26,"University students (US)",26,713548,30,4695,7,58,36,1,1,0.315367
5,"pratte_2010_exploring",26,"University students (US)",26,713549,30,4695,7,59,36,2,1,0.565653
5,"pratte_2010_exploring",26,"University students (US)",26,713550,30,4695,7,60,36,2,1,0.657523
5,"pratte_2010_exploring",26,"University students (US)",26,713551,30,4695,7,61,36,1,1,0.479209
5,"pratte_2010_exploring",26,"University students (US)",26,713552,30,4695,7,62,36,1,1,0.95975
5,"pratte_2010_exploring",26,"University students (US)",26,713553,30,4695,7,63,36,1,1,0.857778
5,"pratte_2010_exploring",26,"University students (US)",26,713554,30,4695,7,64,36,2,1,0.731262
5,"pratte_2010_exploring",26,"University students (US)",26,713556,30,4695,7,66,36,2,1,1.380252
5,"pratte_2010_exploring",26,"University students (US)",26,713557,30,4695,7,67,36,2,1,0.60615
5,"pratte_2010_exploring",26,"University students (US)",26,713558,30,4695,7,68,36,1,1,0.672953
5,"pratte_2010_exploring",26,"University students (US)",26,713560,30,4695,7,70,36,1,1,0.668922
5,"pratte_2010_exploring",26,"University students (US)",26,713561,30,4695,7,71,36,2,1,0.555673
5,"pratte_2010_exploring",26,"University students (US)",26,713562,30,4695,7,72,36,2,1,0.517814
5,"pratte_2010_exploring",26,"University students (US)",26,713566,30,4696,1,4,36,1,1,0.437282
5,"pratte_2010_exploring",26,"University students (US)",26,713567,30,4696,1,5,36,2,1,0.811308
5,"pratte_2010_exploring",26,"University students (US)",26,713568,30,4696,1,6,36,2,1,0.899503
5,"pratte_2010_exploring",26,"University students (US)",26,713569,30,4696,1,7,36,1,1,0.71587
5,"pratte_2010_exploring",26,"University students (US)",26,713570,30,4696,1,8,36,1,1,0.669363
5,"pratte_2010_exploring",26,"University students (US)",26,713571,30,4696,1,9,36,2,1,0.543315
5,"pratte_2010_exploring",26,"University students (US)",26,713572,30,4696,1,10,36,1,1,0.541334
5,"pratte_2010_exploring",26,"University students (US)",26,713573,30,4696,1,11,36,2,1,0.769269
5,"pratte_2010_exploring",26,"University students (US)",26,713576,30,4696,1,14,36,1,1,0.383075
5,"pratte_2010_exploring",26,"University students (US)",26,713577,30,4696,1,15,36,1,1,0.377591
5,"pratte_2010_exploring",26,"University students (US)",26,713579,30,4696,1,17,36,1,1,0.619997
5,"pratte_2010_exploring",26,"University students (US)",26,713581,30,4696,1,19,36,2,1,0.319773
5,"pratte_2010_exploring",26,"University students (US)",26,713584,30,4696,1,22,36,2,1,0.610119
5,"pratte_2010_exploring",26,"University students (US)",26,713585,30,4696,1,23,36,2,1,0.62692
5,"pratte_2010_exploring",26,"University students (US)",26,713587,30,4696,1,25,36,1,1,0.589071
5,"pratte_2010_exploring",26,"University students (US)",26,713588,30,4696,1,26,36,1,1,0.499743
5,"pratte_2010_exploring",26,"University students (US)",26,713592,30,4696,1,30,36,2,1,0.49353
5,"pratte_2010_exploring",26,"University students (US)",26,713593,30,4696,1,31,36,2,1,0.79602
5,"pratte_2010_exploring",26,"University students (US)",26,713595,30,4696,1,33,36,1,1,0.501928
5,"pratte_2010_exploring",26,"University students (US)",26,713597,30,4696,1,35,36,1,1,0.412299
5,"pratte_2010_exploring",26,"University students (US)",26,713598,30,4696,1,36,36,1,0,0.475196
5,"pratte_2010_exploring",26,"University students (US)",26,713600,30,4696,1,38,36,2,1,0.570479
5,"pratte_2010_exploring",26,"University students (US)",26,713601,30,4696,1,39,36,1,1,0.407609
5,"pratte_2010_exploring",26,"University students (US)",26,713602,30,4696,1,40,36,2,1,0.535594
5,"pratte_2010_exploring",26,"University students (US)",26,713603,30,4696,1,41,36,1,1,0.386134
5,"pratte_2010_exploring",26,"University students (US)",26,713604,30,4696,1,42,36,2,1,0.54724
5,"pratte_2010_exploring",26,"University students (US)",26,713605,30,4696,1,43,36,2,1,0.583858
5,"pratte_2010_exploring",26,"University students (US)",26,713607,30,4696,1,45,36,2,1,0.52634
5,"pratte_2010_exploring",26,"University students (US)",26,713608,30,4696,1,46,36,2,1,0.628381
5,"pratte_2010_exploring",26,"University students (US)",26,713609,30,4696,1,47,36,2,1,0.573954
5,"pratte_2010_exploring",26,"University students (US)",26,713610,30,4696,1,48,36,2,1,0.596546
5,"pratte_2010_exploring",26,"University students (US)",26,713611,30,4696,1,49,36,2,1,0.523203
5,"pratte_2010_exploring",26,"University students (US)",26,713612,30,4696,1,50,36,1,1,0.489262
5,"pratte_2010_exploring",26,"University students (US)",26,713614,30,4696,1,52,36,1,1,0.474977
5,"pratte_2010_exploring",26,"University students (US)",26,713615,30,4696,1,53,36,2,1,0.626812
5,"pratte_2010_exploring",26,"University students (US)",26,713616,30,4696,1,54,36,1,1,0.449538
5,"pratte_2010_exploring",26,"University students (US)",26,713620,30,4696,1,58,36,2,1,0.686982
5,"pratte_2010_exploring",26,"University students (US)",26,713621,30,4696,1,59,36,2,1,0.47633
5,"pratte_2010_exploring",26,"University students (US)",26,713622,30,4696,1,60,36,1,1,0.628702
5,"pratte_2010_exploring",26,"University students (US)",26,713623,30,4696,1,61,36,1,1,0.595434
5,"pratte_2010_exploring",26,"University students (US)",26,713627,30,4696,1,65,36,2,1,0.43525
5,"pratte_2010_exploring",26,"University students (US)",26,713630,30,4696,1,68,36,2,1,0.382208
5,"pratte_2010_exploring",26,"University students (US)",26,713632,30,4696,1,70,36,1,1,0.786572
5,"pratte_2010_exploring",26,"University students (US)",26,713633,30,4696,1,71,36,1,1,0.498289
5,"pratte_2010_exploring",26,"University students (US)",26,713634,30,4696,1,72,36,1,1,0.508217
5,"pratte_2010_exploring",26,"University students (US)",26,713638,30,4696,2,4,36,2,1,0.677313
5,"pratte_2010_exploring",26,"University students (US)",26,713639,30,4696,2,5,36,1,1,0.423132
5,"pratte_2010_exploring",26,"University students (US)",26,713640,30,4696,2,6,36,2,1,0.58647
5,"pratte_2010_exploring",26,"University students (US)",26,713641,30,4696,2,7,36,1,1,0.557246
5,"pratte_2010_exploring",26,"University students (US)",26,713644,30,4696,2,10,36,1,1,0.439569
5,"pratte_2010_exploring",26,"University students (US)",26,713645,30,4696,2,11,36,2,1,0.55373
5,"pratte_2010_exploring",26,"University students (US)",26,713647,30,4696,2,13,36,2,1,0.437134
5,"pratte_2010_exploring",26,"University students (US)",26,713651,30,4696,2,17,36,2,1,0.677882
5,"pratte_2010_exploring",26,"University students (US)",26,713652,30,4696,2,18,36,1,1,0.42665
5,"pratte_2010_exploring",26,"University students (US)",26,713654,30,4696,2,20,36,2,1,0.546186
5,"pratte_2010_exploring",26,"University students (US)",26,713655,30,4696,2,21,36,1,1,0.74987
5,"pratte_2010_exploring",26,"University students (US)",26,713658,30,4696,2,24,36,2,1,0.501531
5,"pratte_2010_exploring",26,"University students (US)",26,713659,30,4696,2,25,36,2,1,0.53329
5,"pratte_2010_exploring",26,"University students (US)",26,713660,30,4696,2,26,36,2,1,0.437766
5,"pratte_2010_exploring",26,"University students (US)",26,713662,30,4696,2,28,36,2,1,0.533248
5,"pratte_2010_exploring",26,"University students (US)",26,713663,30,4696,2,29,36,2,1,0.466401
5,"pratte_2010_exploring",26,"University students (US)",26,713664,30,4696,2,30,36,2,1,0.566794
5,"pratte_2010_exploring",26,"University students (US)",26,713665,30,4696,2,31,36,1,1,0.59027
5,"pratte_2010_exploring",26,"University students (US)",26,713666,30,4696,2,32,36,1,1,0.40797
5,"pratte_2010_exploring",26,"University students (US)",26,713669,30,4696,2,35,36,1,1,0.461068
5,"pratte_2010_exploring",26,"University students (US)",26,713670,30,4696,2,36,36,2,1,0.596875
5,"pratte_2010_exploring",26,"University students (US)",26,713671,30,4696,2,37,36,2,1,0.617083
5,"pratte_2010_exploring",26,"University students (US)",26,713673,30,4696,2,39,36,1,1,0.36727
5,"pratte_2010_exploring",26,"University students (US)",26,713674,30,4696,2,40,36,1,1,0.59732
5,"pratte_2010_exploring",26,"University students (US)",26,713675,30,4696,2,41,36,1,1,0.38206
5,"pratte_2010_exploring",26,"University students (US)",26,713677,30,4696,2,43,36,1,1,0.425276
5,"pratte_2010_exploring",26,"University students (US)",26,713678,30,4696,2,44,36,1,1,0.621876
5,"pratte_2010_exploring",26,"University students (US)",26,713679,30,4696,2,45,36,2,1,0.620215
5,"pratte_2010_exploring",26,"University students (US)",26,713680,30,4696,2,46,36,1,1,0.533362
5,"pratte_2010_exploring",26,"University students (US)",26,713682,30,4696,2,48,36,2,1,0.620117
5,"pratte_2010_exploring",26,"University students (US)",26,713683,30,4696,2,49,36,1,1,0.47268
5,"pratte_2010_exploring",26,"University students (US)",26,713685,30,4696,2,51,36,2,1,0.958513
5,"pratte_2010_exploring",26,"University students (US)",26,713687,30,4696,2,53,36,2,0,0.444939
5,"pratte_2010_exploring",26,"University students (US)",26,713688,30,4696,2,54,36,2,1,0.848375
5,"pratte_2010_exploring",26,"University students (US)",26,713689,30,4696,2,55,36,1,1,0.581281
5,"pratte_2010_exploring",26,"University students (US)",26,713690,30,4696,2,56,36,1,1,0.483855
5,"pratte_2010_exploring",26,"University students (US)",26,713691,30,4696,2,57,36,2,1,0.637908
5,"pratte_2010_exploring",26,"University students (US)",26,713692,30,4696,2,58,36,2,1,0.446658
5,"pratte_2010_exploring",26,"University students (US)",26,713694,30,4696,2,60,36,2,1,0.685785
5,"pratte_2010_exploring",26,"University students (US)",26,713695,30,4696,2,61,36,1,1,0.557114
5,"pratte_2010_exploring",26,"University students (US)",26,713697,30,4696,2,63,36,1,1,0.5531
5,"pratte_2010_exploring",26,"University students (US)",26,713698,30,4696,2,64,36,1,1,0.439816
5,"pratte_2010_exploring",26,"University students (US)",26,713702,30,4696,2,68,36,1,1,0.439054
5,"pratte_2010_exploring",26,"University students (US)",26,713703,30,4696,2,69,36,2,1,0.706553
5,"pratte_2010_exploring",26,"University students (US)",26,713704,30,4696,2,70,36,1,1,0.490317
5,"pratte_2010_exploring",26,"University students (US)",26,713705,30,4696,2,71,36,1,1,0.407567
5,"pratte_2010_exploring",26,"University students (US)",26,713711,30,4696,3,5,36,2,1,0.87596
5,"pratte_2010_exploring",26,"University students (US)",26,713713,30,4696,3,7,36,2,1,0.489747
5,"pratte_2010_exploring",26,"University students (US)",26,713716,30,4696,3,10,36,2,1,0.505416
5,"pratte_2010_exploring",26,"University students (US)",26,713717,30,4696,3,11,36,2,1,0.922497
5,"pratte_2010_exploring",26,"University students (US)",26,713718,30,4696,3,12,36,1,1,0.561666
5,"pratte_2010_exploring",26,"University students (US)",26,713720,30,4696,3,14,36,1,1,0.850994
5,"pratte_2010_exploring",26,"University students (US)",26,713722,30,4696,3,16,36,1,1,0.545467
5,"pratte_2010_exploring",26,"University students (US)",26,713725,30,4696,3,19,36,2,1,0.652877
5,"pratte_2010_exploring",26,"University students (US)",26,713726,30,4696,3,20,36,2,1,0.458956
5,"pratte_2010_exploring",26,"University students (US)",26,713727,30,4696,3,21,36,1,1,0.548726
5,"pratte_2010_exploring",26,"University students (US)",26,713729,30,4696,3,23,36,2,1,0.572753
5,"pratte_2010_exploring",26,"University students (US)",26,713730,30,4696,3,24,36,2,1,0.61737
5,"pratte_2010_exploring",26,"University students (US)",26,713731,30,4696,3,25,36,1,1,0.366726
5,"pratte_2010_exploring",26,"University students (US)",26,713732,30,4696,3,26,36,2,1,0.607964
5,"pratte_2010_exploring",26,"University students (US)",26,713734,30,4696,3,28,36,2,1,0.495785
5,"pratte_2010_exploring",26,"University students (US)",26,713735,30,4696,3,29,36,2,1,0.506088
5,"pratte_2010_exploring",26,"University students (US)",26,713737,30,4696,3,31,36,2,1,0.415287
5,"pratte_2010_exploring",26,"University students (US)",26,713738,30,4696,3,32,36,1,1,0.541616
5,"pratte_2010_exploring",26,"University students (US)",26,713739,30,4696,3,33,36,1,1,0.480209
5,"pratte_2010_exploring",26,"University students (US)",26,713741,30,4696,3,35,36,1,1,0.395321
5,"pratte_2010_exploring",26,"University students (US)",26,713743,30,4696,3,37,36,2,1,0.507443
5,"pratte_2010_exploring",26,"University students (US)",26,713744,30,4696,3,38,36,1,1,0.6433
5,"pratte_2010_exploring",26,"University students (US)",26,713745,30,4696,3,39,36,1,1,0.564421
5,"pratte_2010_exploring",26,"University students (US)",26,713746,30,4696,3,40,36,1,1,0.502861
5,"pratte_2010_exploring",26,"University students (US)",26,713747,30,4696,3,41,36,1,1,0.567553
5,"pratte_2010_exploring",26,"University students (US)",26,713750,30,4696,3,44,36,2,1,0.617502
5,"pratte_2010_exploring",26,"University students (US)",26,713752,30,4696,3,46,36,1,1,0.50968
5,"pratte_2010_exploring",26,"University students (US)",26,713755,30,4696,3,49,36,1,1,0.468457
5,"pratte_2010_exploring",26,"University students (US)",26,713756,30,4696,3,50,36,2,1,0.413202
5,"pratte_2010_exploring",26,"University students (US)",26,713757,30,4696,3,51,36,2,1,0.408176
5,"pratte_2010_exploring",26,"University students (US)",26,713758,30,4696,3,52,36,2,1,0.411344
5,"pratte_2010_exploring",26,"University students (US)",26,713760,30,4696,3,54,36,1,1,0.395374
5,"pratte_2010_exploring",26,"University students (US)",26,713761,30,4696,3,55,36,1,1,0.428572
5,"pratte_2010_exploring",26,"University students (US)",26,713764,30,4696,3,58,36,2,1,0.416904
5,"pratte_2010_exploring",26,"University students (US)",26,713765,30,4696,3,59,36,1,1,0.419539
5,"pratte_2010_exploring",26,"University students (US)",26,713766,30,4696,3,60,36,2,1,0.643714
5,"pratte_2010_exploring",26,"University students (US)",26,713768,30,4696,3,62,36,1,1,0.485405
5,"pratte_2010_exploring",26,"University students (US)",26,713769,30,4696,3,63,36,2,1,0.585548
5,"pratte_2010_exploring",26,"University students (US)",26,713770,30,4696,3,64,36,2,1,0.521269
5,"pratte_2010_exploring",26,"University students (US)",26,713771,30,4696,3,65,36,1,1,0.602209
5,"pratte_2010_exploring",26,"University students (US)",26,713772,30,4696,3,66,36,2,1,0.802689
5,"pratte_2010_exploring",26,"University students (US)",26,713773,30,4696,3,67,36,1,1,0.415962
5,"pratte_2010_exploring",26,"University students (US)",26,713774,30,4696,3,68,36,1,1,0.495168
5,"pratte_2010_exploring",26,"University students (US)",26,713775,30,4696,3,69,36,1,1,0.516169
5,"pratte_2010_exploring",26,"University students (US)",26,713776,30,4696,3,70,36,2,1,0.51009
5,"pratte_2010_exploring",26,"University students (US)",26,713777,30,4696,3,71,36,1,1,0.59358
5,"pratte_2010_exploring",26,"University students (US)",26,713782,30,4696,4,4,36,2,1,0.436156
5,"pratte_2010_exploring",26,"University students (US)",26,713783,30,4696,4,5,36,2,1,0.611142
5,"pratte_2010_exploring",26,"University students (US)",26,713785,30,4696,4,7,36,1,1,0.501547
5,"pratte_2010_exploring",26,"University students (US)",26,713786,30,4696,4,8,36,2,1,0.520363
5,"pratte_2010_exploring",26,"University students (US)",26,713788,30,4696,4,10,36,2,1,0.369297
5,"pratte_2010_exploring",26,"University students (US)",26,713789,30,4696,4,11,36,1,1,0.400075
5,"pratte_2010_exploring",26,"University students (US)",26,713792,30,4696,4,14,36,2,1,0.672471
5,"pratte_2010_exploring",26,"University students (US)",26,713793,30,4696,4,15,36,1,1,0.535633
5,"pratte_2010_exploring",26,"University students (US)",26,713794,30,4696,4,16,36,2,1,0.38923
5,"pratte_2010_exploring",26,"University students (US)",26,713796,30,4696,4,18,36,2,0,0.796836
5,"pratte_2010_exploring",26,"University students (US)",26,713797,30,4696,4,19,36,1,1,0.746244
5,"pratte_2010_exploring",26,"University students (US)",26,713800,30,4696,4,22,36,2,1,0.469169
5,"pratte_2010_exploring",26,"University students (US)",26,713801,30,4696,4,23,36,2,1,0.402841
5,"pratte_2010_exploring",26,"University students (US)",26,713803,30,4696,4,25,36,2,1,0.543436
5,"pratte_2010_exploring",26,"University students (US)",26,713805,30,4696,4,27,36,1,1,0.5419
5,"pratte_2010_exploring",26,"University students (US)",26,713806,30,4696,4,28,36,1,1,0.767782
5,"pratte_2010_exploring",26,"University students (US)",26,713808,30,4696,4,30,36,2,1,0.616495
5,"pratte_2010_exploring",26,"University students (US)",26,713809,30,4696,4,31,36,2,1,1.209722
5,"pratte_2010_exploring",26,"University students (US)",26,713811,30,4696,4,33,36,1,1,0.465791
5,"pratte_2010_exploring",26,"University students (US)",26,713812,30,4696,4,34,36,1,1,0.517879
5,"pratte_2010_exploring",26,"University students (US)",26,713813,30,4696,4,35,36,2,0,0.782664
5,"pratte_2010_exploring",26,"University students (US)",26,713815,30,4696,4,37,36,1,1,0.476701
5,"pratte_2010_exploring",26,"University students (US)",26,713816,30,4696,4,38,36,2,1,0.757983
5,"pratte_2010_exploring",26,"University students (US)",26,713817,30,4696,4,39,36,1,1,0.516427
5,"pratte_2010_exploring",26,"University students (US)",26,713818,30,4696,4,40,36,1,1,0.501773
5,"pratte_2010_exploring",26,"University students (US)",26,713820,30,4696,4,42,36,2,1,0.405768
5,"pratte_2010_exploring",26,"University students (US)",26,713821,30,4696,4,43,36,1,1,0.570536
5,"pratte_2010_exploring",26,"University students (US)",26,713823,30,4696,4,45,36,2,1,0.621749
5,"pratte_2010_exploring",26,"University students (US)",26,713824,30,4696,4,46,36,2,1,0.644335
5,"pratte_2010_exploring",26,"University students (US)",26,713825,30,4696,4,47,36,1,1,0.541283
5,"pratte_2010_exploring",26,"University students (US)",26,713827,30,4696,4,49,36,1,1,0.524396
5,"pratte_2010_exploring",26,"University students (US)",26,713828,30,4696,4,50,36,1,1,0.553641
5,"pratte_2010_exploring",26,"University students (US)",26,713831,30,4696,4,53,36,2,1,0.483169
5,"pratte_2010_exploring",26,"University students (US)",26,713832,30,4696,4,54,36,1,1,0.447256
5,"pratte_2010_exploring",26,"University students (US)",26,713833,30,4696,4,55,36,1,1,0.387136
5,"pratte_2010_exploring",26,"University students (US)",26,713834,30,4696,4,56,36,2,1,2.052143
5,"pratte_2010_exploring",26,"University students (US)",26,713835,30,4696,4,57,36,2,1,0.561388
5,"pratte_2010_exploring",26,"University students (US)",26,713836,30,4696,4,58,36,2,1,0.967406
5,"pratte_2010_exploring",26,"University students (US)",26,713837,30,4696,4,59,36,1,1,0.69148
5,"pratte_2010_exploring",26,"University students (US)",26,713840,30,4696,4,62,36,1,1,0.433009
5,"pratte_2010_exploring",26,"University students (US)",26,713841,30,4696,4,63,36,1,1,0.49873
5,"pratte_2010_exploring",26,"University students (US)",26,713842,30,4696,4,64,36,2,1,0.580388
5,"pratte_2010_exploring",26,"University students (US)",26,713843,30,4696,4,65,36,2,1,0.64141
5,"pratte_2010_exploring",26,"University students (US)",26,713846,30,4696,4,68,36,2,1,0.450968
5,"pratte_2010_exploring",26,"University students (US)",26,713848,30,4696,4,70,36,1,1,0.498551
5,"pratte_2010_exploring",26,"University students (US)",26,713850,30,4696,4,72,36,1,1,0.713795
5,"pratte_2010_exploring",26,"University students (US)",26,713854,30,4696,5,4,36,2,1,0.959532
5,"pratte_2010_exploring",26,"University students (US)",26,713857,30,4696,5,7,36,1,1,0.534716
5,"pratte_2010_exploring",26,"University students (US)",26,713858,30,4696,5,8,36,2,1,0.602119
5,"pratte_2010_exploring",26,"University students (US)",26,713859,30,4696,5,9,36,1,1,0.461384
5,"pratte_2010_exploring",26,"University students (US)",26,713860,30,4696,5,10,36,2,1,0.564948
5,"pratte_2010_exploring",26,"University students (US)",26,713861,30,4696,5,11,36,2,1,0.503849
5,"pratte_2010_exploring",26,"University students (US)",26,713862,30,4696,5,12,36,2,1,1.413519
5,"pratte_2010_exploring",26,"University students (US)",26,713864,30,4696,5,14,36,1,1,0.386545
5,"pratte_2010_exploring",26,"University students (US)",26,713865,30,4696,5,15,36,2,1,0.3517
5,"pratte_2010_exploring",26,"University students (US)",26,713868,30,4696,5,18,36,2,1,0.461625
5,"pratte_2010_exploring",26,"University students (US)",26,713869,30,4696,5,19,36,1,1,0.404461
5,"pratte_2010_exploring",26,"University students (US)",26,713870,30,4696,5,20,36,1,1,0.536141
5,"pratte_2010_exploring",26,"University students (US)",26,713871,30,4696,5,21,36,2,1,0.532612
5,"pratte_2010_exploring",26,"University students (US)",26,713872,30,4696,5,22,36,2,1,0.501208
5,"pratte_2010_exploring",26,"University students (US)",26,713875,30,4696,5,25,36,1,1,0.487776
5,"pratte_2010_exploring",26,"University students (US)",26,713876,30,4696,5,26,36,2,1,1.659392
5,"pratte_2010_exploring",26,"University students (US)",26,713877,30,4696,5,27,36,2,1,0.916047
5,"pratte_2010_exploring",26,"University students (US)",26,713878,30,4696,5,28,36,1,1,0.509057
5,"pratte_2010_exploring",26,"University students (US)",26,713879,30,4696,5,29,36,2,1,0.538838
5,"pratte_2010_exploring",26,"University students (US)",26,713884,30,4696,5,34,36,2,1,0.934459
5,"pratte_2010_exploring",26,"University students (US)",26,713886,30,4696,5,36,36,1,1,0.416565
5,"pratte_2010_exploring",26,"University students (US)",26,713887,30,4696,5,37,36,2,1,0.515443
5,"pratte_2010_exploring",26,"University students (US)",26,713888,30,4696,5,38,36,2,1,0.637646
5,"pratte_2010_exploring",26,"University students (US)",26,713889,30,4696,5,39,36,1,1,0.532035
5,"pratte_2010_exploring",26,"University students (US)",26,713890,30,4696,5,40,36,2,1,0.596743
5,"pratte_2010_exploring",26,"University students (US)",26,713891,30,4696,5,41,36,2,1,0.502139
5,"pratte_2010_exploring",26,"University students (US)",26,713892,30,4696,5,42,36,1,1,0.52081
5,"pratte_2010_exploring",26,"University students (US)",26,713893,30,4696,5,43,36,2,1,0.588566
5,"pratte_2010_exploring",26,"University students (US)",26,713894,30,4696,5,44,36,2,1,0.688115
5,"pratte_2010_exploring",26,"University students (US)",26,713895,30,4696,5,45,36,1,1,0.589543
5,"pratte_2010_exploring",26,"University students (US)",26,713897,30,4696,5,47,36,1,1,0.51824
5,"pratte_2010_exploring",26,"University students (US)",26,713903,30,4696,5,53,36,1,1,0.544216
5,"pratte_2010_exploring",26,"University students (US)",26,713904,30,4696,5,54,36,1,1,0.581496
5,"pratte_2010_exploring",26,"University students (US)",26,713906,30,4696,5,56,36,2,1,0.599541
5,"pratte_2010_exploring",26,"University students (US)",26,713907,30,4696,5,57,36,1,1,0.564986
5,"pratte_2010_exploring",26,"University students (US)",26,713911,30,4696,5,61,36,1,1,0.42711
5,"pratte_2010_exploring",26,"University students (US)",26,713912,30,4696,5,62,36,1,1,0.4355
5,"pratte_2010_exploring",26,"University students (US)",26,713913,30,4696,5,63,36,1,1,0.400606
5,"pratte_2010_exploring",26,"University students (US)",26,713914,30,4696,5,64,36,1,1,0.363139
5,"pratte_2010_exploring",26,"University students (US)",26,713915,30,4696,5,65,36,2,1,0.561116
5,"pratte_2010_exploring",26,"University students (US)",26,713916,30,4696,5,66,36,1,1,0.519194
5,"pratte_2010_exploring",26,"University students (US)",26,713918,30,4696,5,68,36,2,1,0.568751
5,"pratte_2010_exploring",26,"University students (US)",26,713920,30,4696,5,70,36,1,1,0.543284
5,"pratte_2010_exploring",26,"University students (US)",26,713921,30,4696,5,71,36,1,1,0.512361
5,"pratte_2010_exploring",26,"University students (US)",26,713922,30,4696,5,72,36,1,1,0.531484
5,"pratte_2010_exploring",26,"University students (US)",26,713926,30,4696,6,4,36,1,1,0.872188
5,"pratte_2010_exploring",26,"University students (US)",26,713927,30,4696,6,5,36,2,1,0.534366
5,"pratte_2010_exploring",26,"University students (US)",26,713928,30,4696,6,6,36,2,1,0.528257
5,"pratte_2010_exploring",26,"University students (US)",26,713929,30,4696,6,7,36,2,0,0.672298
5,"pratte_2010_exploring",26,"University students (US)",26,713930,30,4696,6,8,36,2,1,1.025604
5,"pratte_2010_exploring",26,"University students (US)",26,713932,30,4696,6,10,36,1,1,1.308123
5,"pratte_2010_exploring",26,"University students (US)",26,713933,30,4696,6,11,36,2,1,0.550338
5,"pratte_2010_exploring",26,"University students (US)",26,713934,30,4696,6,12,36,1,1,0.674864
5,"pratte_2010_exploring",26,"University students (US)",26,713935,30,4696,6,13,36,1,1,0.503336
5,"pratte_2010_exploring",26,"University students (US)",26,713936,30,4696,6,14,36,1,1,0.377627
5,"pratte_2010_exploring",26,"University students (US)",26,713938,30,4696,6,16,36,1,1,0.447691
5,"pratte_2010_exploring",26,"University students (US)",26,713940,30,4696,6,18,36,1,1,0.379778
5,"pratte_2010_exploring",26,"University students (US)",26,713941,30,4696,6,19,36,2,1,0.416324
5,"pratte_2010_exploring",26,"University students (US)",26,713945,30,4696,6,23,36,1,1,0.338537
5,"pratte_2010_exploring",26,"University students (US)",26,713946,30,4696,6,24,36,2,1,0.427347
5,"pratte_2010_exploring",26,"University students (US)",26,713947,30,4696,6,25,36,2,1,0.578545
5,"pratte_2010_exploring",26,"University students (US)",26,713948,30,4696,6,26,36,2,0,0.410502
5,"pratte_2010_exploring",26,"University students (US)",26,713949,30,4696,6,27,36,2,1,0.651441
5,"pratte_2010_exploring",26,"University students (US)",26,713950,30,4696,6,28,36,1,1,0.545942
5,"pratte_2010_exploring",26,"University students (US)",26,713951,30,4696,6,29,36,1,1,0.446996
5,"pratte_2010_exploring",26,"University students (US)",26,713953,30,4696,6,31,36,2,1,0.636985
5,"pratte_2010_exploring",26,"University students (US)",26,713954,30,4696,6,32,36,2,1,0.645834
5,"pratte_2010_exploring",26,"University students (US)",26,713961,30,4696,6,39,36,1,1,0.56793
5,"pratte_2010_exploring",26,"University students (US)",26,713962,30,4696,6,40,36,2,1,0.59755
5,"pratte_2010_exploring",26,"University students (US)",26,713966,30,4696,6,44,36,2,1,0.485883
5,"pratte_2010_exploring",26,"University students (US)",26,713967,30,4696,6,45,36,2,1,0.483276
5,"pratte_2010_exploring",26,"University students (US)",26,713972,30,4696,6,50,36,1,1,0.485522
5,"pratte_2010_exploring",26,"University students (US)",26,713973,30,4696,6,51,36,1,1,0.507631
5,"pratte_2010_exploring",26,"University students (US)",26,713974,30,4696,6,52,36,1,1,0.526106
5,"pratte_2010_exploring",26,"University students (US)",26,713975,30,4696,6,53,36,2,1,0.881248
5,"pratte_2010_exploring",26,"University students (US)",26,713977,30,4696,6,55,36,1,1,0.575529
5,"pratte_2010_exploring",26,"University students (US)",26,713978,30,4696,6,56,36,1,1,0.514
5,"pratte_2010_exploring",26,"University students (US)",26,713979,30,4696,6,57,36,2,1,0.445507
5,"pratte_2010_exploring",26,"University students (US)",26,713981,30,4696,6,59,36,2,1,0.623867
5,"pratte_2010_exploring",26,"University students (US)",26,713982,30,4696,6,60,36,2,1,0.6521
5,"pratte_2010_exploring",26,"University students (US)",26,713983,30,4696,6,61,36,1,1,0.527267
5,"pratte_2010_exploring",26,"University students (US)",26,713984,30,4696,6,62,36,1,1,0.526936
5,"pratte_2010_exploring",26,"University students (US)",26,713986,30,4696,6,64,36,1,1,0.5385
5,"pratte_2010_exploring",26,"University students (US)",26,713987,30,4696,6,65,36,2,1,0.623188
5,"pratte_2010_exploring",26,"University students (US)",26,713988,30,4696,6,66,36,2,1,0.695808
5,"pratte_2010_exploring",26,"University students (US)",26,713989,30,4696,6,67,36,2,1,0.537515
5,"pratte_2010_exploring",26,"University students (US)",26,713990,30,4696,6,68,36,2,1,0.594922
5,"pratte_2010_exploring",26,"University students (US)",26,713991,30,4696,6,69,36,2,1,0.66184
5,"pratte_2010_exploring",26,"University students (US)",26,713992,30,4696,6,70,36,1,1,0.488178
5,"pratte_2010_exploring",26,"University students (US)",26,713993,30,4696,6,71,36,1,1,0.658077
5,"pratte_2010_exploring",26,"University students (US)",26,713994,30,4696,6,72,36,1,1,0.372036
5,"pratte_2010_exploring",26,"University students (US)",26,713998,30,4696,7,4,36,1,1,0.54381
5,"pratte_2010_exploring",26,"University students (US)",26,714000,30,4696,7,6,36,1,1,0.530191
5,"pratte_2010_exploring",26,"University students (US)",26,714003,30,4696,7,9,36,1,1,0.74528
5,"pratte_2010_exploring",26,"University students (US)",26,714008,30,4696,7,14,36,2,1,0.947084
5,"pratte_2010_exploring",26,"University students (US)",26,714009,30,4696,7,15,36,1,1,0.573155
5,"pratte_2010_exploring",26,"University students (US)",26,714010,30,4696,7,16,36,2,1,0.59983
5,"pratte_2010_exploring",26,"University students (US)",26,714011,30,4696,7,17,36,2,1,0.683553
5,"pratte_2010_exploring",26,"University students (US)",26,714012,30,4696,7,18,36,2,1,0.33195
5,"pratte_2010_exploring",26,"University students (US)",26,714013,30,4696,7,19,36,1,1,0.740717
5,"pratte_2010_exploring",26,"University students (US)",26,714016,30,4696,7,22,36,2,1,0.73345
5,"pratte_2010_exploring",26,"University students (US)",26,714018,30,4696,7,24,36,1,1,0.516829
5,"pratte_2010_exploring",26,"University students (US)",26,714020,30,4696,7,26,36,2,1,0.438924
5,"pratte_2010_exploring",26,"University students (US)",26,714022,30,4696,7,28,36,1,1,0.374039
5,"pratte_2010_exploring",26,"University students (US)",26,714023,30,4696,7,29,36,2,1,0.517796
5,"pratte_2010_exploring",26,"University students (US)",26,714024,30,4696,7,30,36,2,1,0.558299
5,"pratte_2010_exploring",26,"University students (US)",26,714025,30,4696,7,31,36,2,1,0.590137
5,"pratte_2010_exploring",26,"University students (US)",26,714026,30,4696,7,32,36,2,1,0.628062
5,"pratte_2010_exploring",26,"University students (US)",26,714027,30,4696,7,33,36,2,1,0.528066
5,"pratte_2010_exploring",26,"University students (US)",26,714031,30,4696,7,37,36,1,1,0.37076
5,"pratte_2010_exploring",26,"University students (US)",26,714032,30,4696,7,38,36,2,1,0.407513
5,"pratte_2010_exploring",26,"University students (US)",26,714034,30,4696,7,40,36,1,1,0.375276
5,"pratte_2010_exploring",26,"University students (US)",26,714035,30,4696,7,41,36,2,1,0.576491
5,"pratte_2010_exploring",26,"University students (US)",26,714036,30,4696,7,42,36,1,1,0.62308
5,"pratte_2010_exploring",26,"University students (US)",26,714038,30,4696,7,44,36,1,1,0.470526
5,"pratte_2010_exploring",26,"University students (US)",26,714040,30,4696,7,46,36,2,1,0.642247
5,"pratte_2010_exploring",26,"University students (US)",26,714041,30,4696,7,47,36,2,1,0.605511
5,"pratte_2010_exploring",26,"University students (US)",26,714042,30,4696,7,48,36,1,1,0.52614
5,"pratte_2010_exploring",26,"University students (US)",26,714044,30,4696,7,50,36,1,1,0.501331
5,"pratte_2010_exploring",26,"University students (US)",26,714046,30,4696,7,52,36,1,1,0.419102
5,"pratte_2010_exploring",26,"University students (US)",26,714047,30,4696,7,53,36,1,1,0.485792
5,"pratte_2010_exploring",26,"University students (US)",26,714049,30,4696,7,55,36,1,1,1.339085
5,"pratte_2010_exploring",26,"University students (US)",26,714050,30,4696,7,56,36,2,1,0.884351
5,"pratte_2010_exploring",26,"University students (US)",26,714051,30,4696,7,57,36,2,1,0.513323
5,"pratte_2010_exploring",26,"University students (US)",26,714052,30,4696,7,58,36,1,1,0.756467
5,"pratte_2010_exploring",26,"University students (US)",26,714053,30,4696,7,59,36,2,1,0.5128
5,"pratte_2010_exploring",26,"University students (US)",26,714054,30,4696,7,60,36,2,1,0.922811
5,"pratte_2010_exploring",26,"University students (US)",26,714055,30,4696,7,61,36,1,1,0.499764
5,"pratte_2010_exploring",26,"University students (US)",26,714056,30,4696,7,62,36,1,1,0.442664
5,"pratte_2010_exploring",26,"University students (US)",26,714057,30,4696,7,63,36,1,1,0.483948
5,"pratte_2010_exploring",26,"University students (US)",26,714058,30,4696,7,64,36,2,1,0.642704
5,"pratte_2010_exploring",26,"University students (US)",26,714060,30,4696,7,66,36,2,1,0.468265
5,"pratte_2010_exploring",26,"University students (US)",26,714061,30,4696,7,67,36,2,1,0.553404
5,"pratte_2010_exploring",26,"University students (US)",26,714062,30,4696,7,68,36,1,1,0.497664
5,"pratte_2010_exploring",26,"University students (US)",26,714064,30,4696,7,70,36,1,1,0.54113
5,"pratte_2010_exploring",26,"University students (US)",26,714065,30,4696,7,71,36,2,1,0.48045
5,"pratte_2010_exploring",26,"University students (US)",26,714066,30,4696,7,72,36,2,1,1.262366
5,"pratte_2010_exploring",26,"University students (US)",26,714070,30,4697,1,4,36,1,1,0.623239
5,"pratte_2010_exploring",26,"University students (US)",26,714071,30,4697,1,5,36,2,0,0.806266
5,"pratte_2010_exploring",26,"University students (US)",26,714072,30,4697,1,6,36,2,1,1.277933
5,"pratte_2010_exploring",26,"University students (US)",26,714073,30,4697,1,7,36,1,0,0.570642
5,"pratte_2010_exploring",26,"University students (US)",26,714074,30,4697,1,8,36,1,1,0.725163
5,"pratte_2010_exploring",26,"University students (US)",26,714075,30,4697,1,9,36,2,0,0.953611
5,"pratte_2010_exploring",26,"University students (US)",26,714076,30,4697,1,10,36,1,1,0.855606
5,"pratte_2010_exploring",26,"University students (US)",26,714077,30,4697,1,11,36,2,1,0.909857
5,"pratte_2010_exploring",26,"University students (US)",26,714080,30,4697,1,14,36,1,1,0.67148
5,"pratte_2010_exploring",26,"University students (US)",26,714081,30,4697,1,15,36,1,1,0.561359
5,"pratte_2010_exploring",26,"University students (US)",26,714083,30,4697,1,17,36,1,1,0.88039
5,"pratte_2010_exploring",26,"University students (US)",26,714085,30,4697,1,19,36,2,1,0.539169
5,"pratte_2010_exploring",26,"University students (US)",26,714088,30,4697,1,22,36,2,0,1.088957
5,"pratte_2010_exploring",26,"University students (US)",26,714089,30,4697,1,23,36,2,1,0.830142
5,"pratte_2010_exploring",26,"University students (US)",26,714091,30,4697,1,25,36,1,1,0.887098
5,"pratte_2010_exploring",26,"University students (US)",26,714092,30,4697,1,26,36,1,1,0.47809
5,"pratte_2010_exploring",26,"University students (US)",26,714096,30,4697,1,30,36,2,1,0.654656
5,"pratte_2010_exploring",26,"University students (US)",26,714097,30,4697,1,31,36,2,1,0.846464
5,"pratte_2010_exploring",26,"University students (US)",26,714099,30,4697,1,33,36,1,1,0.552245
5,"pratte_2010_exploring",26,"University students (US)",26,714101,30,4697,1,35,36,1,1,0.600501
5,"pratte_2010_exploring",26,"University students (US)",26,714102,30,4697,1,36,36,1,1,0.495286
5,"pratte_2010_exploring",26,"University students (US)",26,714104,30,4697,1,38,36,2,1,1.392131
5,"pratte_2010_exploring",26,"University students (US)",26,714105,30,4697,1,39,36,1,1,0.804537
5,"pratte_2010_exploring",26,"University students (US)",26,714106,30,4697,1,40,36,2,1,1.436439
5,"pratte_2010_exploring",26,"University students (US)",26,714107,30,4697,1,41,36,1,1,1.055697
5,"pratte_2010_exploring",26,"University students (US)",26,714108,30,4697,1,42,36,2,1,1.246486
5,"pratte_2010_exploring",26,"University students (US)",26,714109,30,4697,1,43,36,2,1,0.721063
5,"pratte_2010_exploring",26,"University students (US)",26,714111,30,4697,1,45,36,2,1,0.584375
5,"pratte_2010_exploring",26,"University students (US)",26,714112,30,4697,1,46,36,2,1,0.6327
5,"pratte_2010_exploring",26,"University students (US)",26,714113,30,4697,1,47,36,2,1,0.966527
5,"pratte_2010_exploring",26,"University students (US)",26,714114,30,4697,1,48,36,2,1,0.605393
5,"pratte_2010_exploring",26,"University students (US)",26,714115,30,4697,1,49,36,2,1,0.961273
5,"pratte_2010_exploring",26,"University students (US)",26,714116,30,4697,1,50,36,1,1,0.701008
5,"pratte_2010_exploring",26,"University students (US)",26,714118,30,4697,1,52,36,1,1,0.397139
5,"pratte_2010_exploring",26,"University students (US)",26,714119,30,4697,1,53,36,2,1,0.812494
5,"pratte_2010_exploring",26,"University students (US)",26,714120,30,4697,1,54,36,1,1,0.696128
5,"pratte_2010_exploring",26,"University students (US)",26,714124,30,4697,1,58,36,2,1,0.778728
5,"pratte_2010_exploring",26,"University students (US)",26,714125,30,4697,1,59,36,2,1,0.712141
5,"pratte_2010_exploring",26,"University students (US)",26,714126,30,4697,1,60,36,1,1,0.57789
5,"pratte_2010_exploring",26,"University students (US)",26,714127,30,4697,1,61,36,1,1,0.660034
5,"pratte_2010_exploring",26,"University students (US)",26,714131,30,4697,1,65,36,2,1,0.491064
5,"pratte_2010_exploring",26,"University students (US)",26,714134,30,4697,1,68,36,2,1,0.60525
5,"pratte_2010_exploring",26,"University students (US)",26,714136,30,4697,1,70,36,1,1,0.705354
5,"pratte_2010_exploring",26,"University students (US)",26,714137,30,4697,1,71,36,1,1,0.780372
5,"pratte_2010_exploring",26,"University students (US)",26,714138,30,4697,1,72,36,1,1,0.563002
5,"pratte_2010_exploring",26,"University students (US)",26,714142,30,4697,2,4,36,2,1,0.56888
5,"pratte_2010_exploring",26,"University students (US)",26,714143,30,4697,2,5,36,1,1,0.790354
5,"pratte_2010_exploring",26,"University students (US)",26,714144,30,4697,2,6,36,2,1,0.634584
5,"pratte_2010_exploring",26,"University students (US)",26,714145,30,4697,2,7,36,1,1,0.58042
5,"pratte_2010_exploring",26,"University students (US)",26,714148,30,4697,2,10,36,1,1,0.578902
5,"pratte_2010_exploring",26,"University students (US)",26,714149,30,4697,2,11,36,2,1,0.713916
5,"pratte_2010_exploring",26,"University students (US)",26,714151,30,4697,2,13,36,2,1,0.522769
5,"pratte_2010_exploring",26,"University students (US)",26,714155,30,4697,2,17,36,2,1,0.912936
5,"pratte_2010_exploring",26,"University students (US)",26,714156,30,4697,2,18,36,1,1,0.489803
5,"pratte_2010_exploring",26,"University students (US)",26,714158,30,4697,2,20,36,2,1,0.698183
5,"pratte_2010_exploring",26,"University students (US)",26,714159,30,4697,2,21,36,1,1,0.530158
5,"pratte_2010_exploring",26,"University students (US)",26,714162,30,4697,2,24,36,2,1,1.046932
5,"pratte_2010_exploring",26,"University students (US)",26,714163,30,4697,2,25,36,2,1,0.452689
5,"pratte_2010_exploring",26,"University students (US)",26,714164,30,4697,2,26,36,2,1,0.589502
5,"pratte_2010_exploring",26,"University students (US)",26,714166,30,4697,2,28,36,2,1,0.665553
5,"pratte_2010_exploring",26,"University students (US)",26,714167,30,4697,2,29,36,2,1,0.597848
5,"pratte_2010_exploring",26,"University students (US)",26,714168,30,4697,2,30,36,2,1,0.851086
5,"pratte_2010_exploring",26,"University students (US)",26,714169,30,4697,2,31,36,1,1,0.42726
5,"pratte_2010_exploring",26,"University students (US)",26,714170,30,4697,2,32,36,1,1,0.694963
5,"pratte_2010_exploring",26,"University students (US)",26,714173,30,4697,2,35,36,1,1,0.415133
5,"pratte_2010_exploring",26,"University students (US)",26,714174,30,4697,2,36,36,2,1,0.872508
5,"pratte_2010_exploring",26,"University students (US)",26,714175,30,4697,2,37,36,2,1,0.519432
5,"pratte_2010_exploring",26,"University students (US)",26,714178,30,4697,2,40,36,1,1,0.66712
5,"pratte_2010_exploring",26,"University students (US)",26,714179,30,4697,2,41,36,1,1,0.481583
5,"pratte_2010_exploring",26,"University students (US)",26,714181,30,4697,2,43,36,1,1,0.669379
5,"pratte_2010_exploring",26,"University students (US)",26,714182,30,4697,2,44,36,1,1,0.353043
5,"pratte_2010_exploring",26,"University students (US)",26,714183,30,4697,2,45,36,2,1,0.815553
5,"pratte_2010_exploring",26,"University students (US)",26,714184,30,4697,2,46,36,1,1,0.6933
5,"pratte_2010_exploring",26,"University students (US)",26,714186,30,4697,2,48,36,2,0,0.535136
5,"pratte_2010_exploring",26,"University students (US)",26,714187,30,4697,2,49,36,1,1,0.837736
5,"pratte_2010_exploring",26,"University students (US)",26,714189,30,4697,2,51,36,2,1,0.894187
5,"pratte_2010_exploring",26,"University students (US)",26,714191,30,4697,2,53,36,2,1,0.432286
5,"pratte_2010_exploring",26,"University students (US)",26,714192,30,4697,2,54,36,2,1,0.577267
5,"pratte_2010_exploring",26,"University students (US)",26,714193,30,4697,2,55,36,1,1,0.642586
5,"pratte_2010_exploring",26,"University students (US)",26,714194,30,4697,2,56,36,1,1,0.434997
5,"pratte_2010_exploring",26,"University students (US)",26,714195,30,4697,2,57,36,2,1,0.755719
5,"pratte_2010_exploring",26,"University students (US)",26,714196,30,4697,2,58,36,2,1,0.706311
5,"pratte_2010_exploring",26,"University students (US)",26,714198,30,4697,2,60,36,2,1,0.568623
5,"pratte_2010_exploring",26,"University students (US)",26,714199,30,4697,2,61,36,1,1,0.4106
5,"pratte_2010_exploring",26,"University students (US)",26,714201,30,4697,2,63,36,1,1,0.478803
5,"pratte_2010_exploring",26,"University students (US)",26,714202,30,4697,2,64,36,1,1,0.668982
5,"pratte_2010_exploring",26,"University students (US)",26,714206,30,4697,2,68,36,1,1,0.401781
5,"pratte_2010_exploring",26,"University students (US)",26,714207,30,4697,2,69,36,2,1,0.80898
5,"pratte_2010_exploring",26,"University students (US)",26,714208,30,4697,2,70,36,1,1,0.513593
5,"pratte_2010_exploring",26,"University students (US)",26,714209,30,4697,2,71,36,1,1,0.38298
5,"pratte_2010_exploring",26,"University students (US)",26,714215,30,4697,3,5,36,2,1,1.183715
5,"pratte_2010_exploring",26,"University students (US)",26,714217,30,4697,3,7,36,2,1,0.366908
5,"pratte_2010_exploring",26,"University students (US)",26,714220,30,4697,3,10,36,2,1,0.536753
5,"pratte_2010_exploring",26,"University students (US)",26,714221,30,4697,3,11,36,2,1,0.942685
5,"pratte_2010_exploring",26,"University students (US)",26,714222,30,4697,3,12,36,1,1,0.437118
5,"pratte_2010_exploring",26,"University students (US)",26,714224,30,4697,3,14,36,1,1,0.807902
5,"pratte_2010_exploring",26,"University students (US)",26,714226,30,4697,3,16,36,1,1,0.496704
5,"pratte_2010_exploring",26,"University students (US)",26,714229,30,4697,3,19,36,2,1,0.714542
5,"pratte_2010_exploring",26,"University students (US)",26,714230,30,4697,3,20,36,2,1,0.469087
