"datasetid","subject","block","trial","congruency","between","within","accuracy","rt"
4,"1","1",4,"2",1,NA,1,0.428013
4,"1","1",9,"1",1,NA,1,0.45115
4,"1","1",10,"2",1,NA,1,0.412612
4,"1","1",11,"2",1,NA,1,0.632031
4,"1","1",12,"1",1,NA,1,0.434915
4,"1","1",13,"1",1,NA,0,0.42102
4,"1","1",15,"1",1,NA,1,0.403296
4,"1","1",16,"1",1,NA,1,0.478698
4,"1","1",18,"1",1,NA,1,0.348033
4,"1","1",19,"1",1,NA,1,0.426121
4,"1","1",20,"1",1,NA,1,0.484912
4,"1","1",21,"2",1,NA,1,0.493098
4,"1","1",22,"2",1,NA,1,0.477256
4,"1","1",23,"2",1,NA,1,0.534047
4,"1","1",26,"2",1,NA,1,0.465617
4,"1","1",27,"2",1,NA,1,0.595122
4,"1","1",28,"1",1,NA,1,0.503297
4,"1","1",29,"2",1,NA,1,0.590789
4,"1","1",30,"1",1,NA,1,0.434965
4,"1","1",31,"1",1,NA,1,0.701106
4,"1","1",34,"2",1,NA,1,0.51268
4,"1","1",35,"2",1,NA,1,0.448167
4,"1","1",36,"2",1,NA,1,0.506296
4,"1","1",38,"2",1,NA,0,0.375922
4,"1","1",39,"1",1,NA,1,0.524683
4,"1","1",40,"1",1,NA,1,0.523486
4,"1","1",41,"2",1,NA,1,0.506297
4,"1","1",42,"2",1,NA,1,0.416812
4,"1","1",43,"1",1,NA,1,0.35628
4,"1","1",44,"1",1,NA,1,0.465709
4,"1","1",46,"2",1,NA,1,0.552722
4,"1","1",48,"2",1,NA,1,0.47366
4,"1","1",49,"1",1,NA,1,0.466448
4,"1","1",52,"2",1,NA,1,0.475993
4,"1","1",54,"1",1,NA,1,0.380283
4,"1","1",57,"1",1,NA,1,0.541397
4,"1","1",59,"2",1,NA,1,0.578404
4,"1","1",60,"1",1,NA,1,0.35027
4,"1","1",61,"2",1,NA,1,0.556346
4,"1","1",62,"1",1,NA,1,0.545874
4,"1","1",63,"2",1,NA,1,0.368026
4,"1","1",65,"2",1,NA,1,0.530324
4,"1","1",68,"1",1,NA,0,0.493837
4,"1","1",69,"1",1,NA,1,0.485972
4,"1","1",71,"1",1,NA,1,0.476298
4,"1","1",72,"2",1,NA,1,0.541094
4,"1","1",73,"2",1,NA,1,0.507279
4,"1","2",4,"2",1,NA,1,0.677798
4,"1","2",5,"1",1,NA,1,0.494674
4,"1","2",6,"2",1,NA,1,0.774854
4,"1","2",8,"1",1,NA,1,0.521654
4,"1","2",11,"1",1,NA,1,0.570012
4,"1","2",12,"1",1,NA,1,0.406893
4,"1","2",14,"2",1,NA,1,0.439123
4,"1","2",15,"1",1,NA,1,0.448252
4,"1","2",17,"1",1,NA,1,0.552558
4,"1","2",18,"1",1,NA,1,0.502074
4,"1","2",19,"2",1,NA,0,0.47757
4,"1","2",20,"2",1,NA,1,0.630386
4,"1","2",22,"1",1,NA,1,0.493427
4,"1","2",23,"1",1,NA,1,0.669599
4,"1","2",24,"1",1,NA,1,0.669505
4,"1","2",27,"2",1,NA,1,0.685348
4,"1","2",28,"1",1,NA,1,0.525589
4,"1","2",29,"2",1,NA,1,0.484434
4,"1","2",31,"1",1,NA,1,0.54006
4,"1","2",33,"1",1,NA,1,0.780855
4,"1","2",34,"1",1,NA,1,0.63379
4,"1","2",35,"2",1,NA,1,0.508012
4,"1","2",36,"2",1,NA,1,0.55547
4,"1","2",37,"1",1,NA,1,0.57702
4,"1","2",38,"1",1,NA,1,0.549853
4,"1","2",39,"1",1,NA,1,0.436027
4,"1","2",40,"2",1,NA,1,0.605158
4,"1","2",41,"1",1,NA,1,0.480702
4,"1","2",42,"1",1,NA,1,0.673531
4,"1","2",44,"2",1,NA,1,0.553251
4,"1","2",48,"2",1,NA,1,0.56928
4,"1","2",51,"2",1,NA,1,0.54743
4,"1","2",52,"1",1,NA,1,0.609595
4,"1","2",56,"1",1,NA,1,0.507046
4,"1","2",57,"2",1,NA,1,0.569549
4,"1","2",58,"2",1,NA,1,0.558387
4,"1","2",59,"2",1,NA,0,0.435872
4,"1","2",61,"2",1,NA,1,0.590255
4,"1","2",62,"1",1,NA,1,0.55445
4,"1","2",63,"2",1,NA,1,0.575963
4,"1","2",64,"2",1,NA,1,0.620842
4,"1","2",67,"2",1,NA,1,0.671649
4,"1","2",68,"1",1,NA,1,0.464545
4,"1","2",69,"2",1,NA,1,0.538042
4,"1","2",71,"1",1,NA,1,0.481112
4,"1","2",73,"2",1,NA,1,0.394068
4,"1","2",74,"2",1,NA,1,0.605205
4,"1","3",4,"1",1,NA,1,0.682217
4,"1","3",5,"2",1,NA,1,0.506144
4,"1","3",7,"2",1,NA,1,0.556367
4,"1","3",8,"2",1,NA,1,0.561892
4,"1","3",9,"2",1,NA,1,0.447355
4,"1","3",10,"1",1,NA,0,0.465544
4,"1","3",11,"1",1,NA,1,0.699032
4,"1","3",12,"2",1,NA,1,0.723244
4,"1","3",13,"1",1,NA,1,0.410111
4,"1","3",16,"2",1,NA,1,0.686882
4,"1","3",19,"2",1,NA,1,0.478828
4,"1","3",20,"1",1,NA,1,0.527635
4,"1","3",21,"2",1,NA,1,0.566475
4,"1","3",22,"1",1,NA,1,0.547048
4,"1","3",24,"1",1,NA,0,0.407962
4,"1","3",28,"2",1,NA,1,0.645968
4,"1","3",30,"2",1,NA,1,0.613041
4,"1","3",31,"2",1,NA,1,0.487572
4,"1","3",32,"1",1,NA,1,0.511725
4,"1","3",35,"1",1,NA,1,0.532301
4,"1","3",36,"2",1,NA,1,0.435123
4,"1","3",38,"1",1,NA,1,0.426771
4,"1","3",39,"2",1,NA,1,0.637572
4,"1","3",40,"1",1,NA,1,0.462771
4,"1","3",41,"1",1,NA,1,0.528247
4,"1","3",42,"2",1,NA,0,0.599079
4,"1","3",43,"2",1,NA,1,0.435272
4,"1","3",44,"2",1,NA,1,0.685416
4,"1","3",48,"2",1,NA,1,0.580134
4,"1","3",50,"1",1,NA,0,0.507461
4,"1","3",51,"2",1,NA,1,0.874922
4,"1","3",52,"2",1,NA,1,0.691904
4,"1","3",53,"1",1,NA,1,0.548111
4,"1","3",54,"1",1,NA,1,0.442272
4,"1","3",56,"2",1,NA,1,0.489614
4,"1","3",57,"2",1,NA,1,0.601776
4,"1","3",58,"2",1,NA,1,0.541254
4,"1","3",59,"1",1,NA,0,0.523466
4,"1","3",60,"2",1,NA,1,0.642291
4,"1","3",62,"2",1,NA,1,0.612733
4,"1","3",64,"1",1,NA,1,0.525871
4,"1","3",65,"1",1,NA,1,0.467696
4,"1","3",66,"1",1,NA,1,0.572508
4,"1","3",67,"1",1,NA,1,0.409326
4,"1","3",69,"1",1,NA,1,0.410977
4,"1","3",70,"1",1,NA,1,0.48644
4,"1","3",72,"1",1,NA,1,0.37539
4,"1","4",4,"2",1,NA,0,0.592858
4,"1","4",5,"2",1,NA,1,0.629076
4,"1","4",6,"1",1,NA,1,0.415961
4,"1","4",8,"2",1,NA,0,0.587545
4,"1","4",9,"1",1,NA,1,0.575752
4,"1","4",12,"2",1,NA,0,0.649899
4,"1","4",13,"1",1,NA,1,0.548131
4,"1","4",15,"1",1,NA,1,0.458455
4,"1","4",16,"1",1,NA,1,0.531927
4,"1","4",17,"1",1,NA,1,0.498775
4,"1","4",19,"1",1,NA,1,0.372036
4,"1","4",20,"2",1,NA,0,0.552843
4,"1","4",21,"1",1,NA,1,0.510334
4,"1","4",22,"2",1,NA,1,0.58981
4,"1","4",25,"2",1,NA,1,0.526339
4,"1","4",28,"1",1,NA,1,0.542459
4,"1","4",29,"1",1,NA,1,0.49262
4,"1","4",30,"2",1,NA,1,0.564803
4,"1","4",31,"2",1,NA,1,0.490312
4,"1","4",32,"2",1,NA,1,0.514458
4,"1","4",33,"1",1,NA,1,0.537953
4,"1","4",35,"2",1,NA,1,0.552292
4,"1","4",37,"2",1,NA,1,0.420951
4,"1","4",38,"2",1,NA,0,0.487705
4,"1","4",39,"2",1,NA,1,0.471883
4,"1","4",40,"1",1,NA,1,0.520704
4,"1","4",41,"2",1,NA,1,0.575539
4,"1","4",43,"1",1,NA,1,0.550598
4,"1","4",44,"1",1,NA,1,0.459108
4,"1","4",45,"1",1,NA,1,0.484598
4,"1","4",47,"1",1,NA,1,0.407523
4,"1","4",48,"1",1,NA,1,0.426953
4,"1","4",50,"2",1,NA,1,0.579869
4,"1","4",53,"2",1,NA,1,0.466338
4,"1","4",55,"1",1,NA,1,0.415683
4,"1","4",56,"2",1,NA,1,0.419108
4,"1","4",57,"2",1,NA,1,0.565912
4,"1","4",59,"1",1,NA,1,0.410268
4,"1","4",60,"2",1,NA,1,0.333712
4,"1","4",61,"1",1,NA,1,0.620445
4,"1","4",62,"1",1,NA,1,0.526318
4,"1","4",63,"1",1,NA,1,0.501166
4,"1","4",67,"1",1,NA,1,0.438411
4,"1","4",68,"2",1,NA,1,0.432568
4,"1","4",69,"2",1,NA,1,0.443358
4,"1","4",70,"2",1,NA,0,0.477464
4,"1","4",74,"2",1,NA,1,0.451876
4,"2","1",4,"2",1,NA,1,0.66837
4,"2","1",9,"1",1,NA,1,0.836306
4,"2","1",10,"2",1,NA,1,0.654578
4,"2","1",11,"2",1,NA,1,1.480168
4,"2","1",12,"1",1,NA,1,0.569314
4,"2","1",13,"1",1,NA,1,0.662111
4,"2","1",15,"1",1,NA,1,0.628528
4,"2","1",16,"1",1,NA,1,0.863462
4,"2","1",18,"1",1,NA,1,1.42163
4,"2","1",19,"1",1,NA,1,0.816781
4,"2","1",20,"1",1,NA,1,0.636377
4,"2","1",21,"2",1,NA,1,0.614558
4,"2","1",22,"2",1,NA,1,1.066105
4,"2","1",23,"2",1,NA,1,0.651753
4,"2","1",26,"2",1,NA,1,0.664079
4,"2","1",27,"2",1,NA,1,0.77761
4,"2","1",28,"1",1,NA,1,1.190542
4,"2","1",29,"2",1,NA,1,0.770916
4,"2","1",30,"1",1,NA,1,0.567827
4,"2","1",31,"1",1,NA,1,1.723712
4,"2","1",34,"2",1,NA,1,0.679392
4,"2","1",35,"2",1,NA,0,0.688292
4,"2","1",38,"2",1,NA,1,0.903731
4,"2","1",39,"1",1,NA,1,0.607338
4,"2","1",40,"1",1,NA,1,0.826916
4,"2","1",41,"2",1,NA,0,0.613763
4,"2","1",42,"2",1,NA,1,1.29731
4,"2","1",43,"1",1,NA,1,0.617747
4,"2","1",44,"1",1,NA,1,0.564633
4,"2","1",46,"2",1,NA,1,0.816619
4,"2","1",48,"2",1,NA,1,0.834388
4,"2","1",49,"1",1,NA,1,1.228658
4,"2","1",52,"2",1,NA,1,0.696154
4,"2","1",54,"1",1,NA,1,0.569537
4,"2","1",57,"1",1,NA,1,0.856053
4,"2","1",59,"2",1,NA,1,0.555324
4,"2","1",60,"1",1,NA,1,0.74471
4,"2","1",61,"2",1,NA,0,1.03798
4,"2","1",62,"1",1,NA,1,0.624322
4,"2","1",63,"2",1,NA,0,0.851206
4,"2","1",65,"2",1,NA,1,0.677046
4,"2","1",68,"1",1,NA,1,0.671808
4,"2","1",69,"1",1,NA,1,1.127688
4,"2","1",71,"1",1,NA,1,0.608909
4,"2","1",72,"2",1,NA,1,0.964446
4,"2","1",73,"2",1,NA,1,1.186077
4,"2","2",4,"2",1,NA,1,1.025442
4,"2","2",5,"1",1,NA,1,0.564419
4,"2","2",6,"2",1,NA,1,0.9619
4,"2","2",8,"1",1,NA,1,0.729386
4,"2","2",11,"1",1,NA,1,0.636521
4,"2","2",12,"1",1,NA,1,0.686673
4,"2","2",14,"2",1,NA,1,1.424908
4,"2","2",15,"1",1,NA,1,0.796035
4,"2","2",17,"1",1,NA,1,0.655837
4,"2","2",18,"1",1,NA,1,0.649388
4,"2","2",19,"2",1,NA,1,1.38764
4,"2","2",20,"2",1,NA,1,0.784136
4,"2","2",22,"1",1,NA,1,0.930173
4,"2","2",23,"1",1,NA,1,1.201183
4,"2","2",24,"1",1,NA,1,1.220925
4,"2","2",27,"2",1,NA,1,1.307974
4,"2","2",28,"1",1,NA,1,0.794771
4,"2","2",29,"2",1,NA,1,1.247008
4,"2","2",31,"1",1,NA,1,0.775673
4,"2","2",33,"1",1,NA,1,0.963677
4,"2","2",34,"1",1,NA,1,0.617288
4,"2","2",35,"2",1,NA,1,0.683192
4,"2","2",36,"2",1,NA,1,0.588012
4,"2","2",37,"1",1,NA,1,0.752171
4,"2","2",38,"1",1,NA,1,1.053763
4,"2","2",39,"1",1,NA,1,0.775451
4,"2","2",40,"2",1,NA,1,0.636395
4,"2","2",41,"1",1,NA,1,0.966509
4,"2","2",42,"1",1,NA,1,0.732166
4,"2","2",44,"2",1,NA,1,0.802245
4,"2","2",48,"2",1,NA,1,0.8919
4,"2","2",51,"2",1,NA,1,1.349587
4,"2","2",52,"1",1,NA,1,1.100067
4,"2","2",56,"1",1,NA,1,0.900119
4,"2","2",57,"2",1,NA,1,1.059408
4,"2","2",58,"2",1,NA,1,1.341075
4,"2","2",59,"2",1,NA,1,1.283526
4,"2","2",61,"2",1,NA,1,0.572094
4,"2","2",62,"1",1,NA,1,0.816942
4,"2","2",63,"2",1,NA,1,0.67501
4,"2","2",64,"2",1,NA,1,0.76378
4,"2","2",67,"2",1,NA,1,1.563745
4,"2","2",68,"1",1,NA,1,1.057587
4,"2","2",69,"2",1,NA,1,0.73125
4,"2","2",71,"1",1,NA,1,0.971659
4,"2","2",73,"2",1,NA,1,0.625856
4,"2","2",74,"2",1,NA,1,0.956707
4,"2","3",4,"1",1,NA,1,1.017014
4,"2","3",5,"2",1,NA,1,0.947984
4,"2","3",7,"2",1,NA,1,0.675848
4,"2","3",8,"2",1,NA,1,0.780733
4,"2","3",9,"2",1,NA,1,0.929783
4,"2","3",10,"1",1,NA,1,0.791637
4,"2","3",11,"1",1,NA,1,0.883887
4,"2","3",12,"2",1,NA,1,0.636147
4,"2","3",13,"1",1,NA,1,0.51835
4,"2","3",16,"2",1,NA,1,1.686349
4,"2","3",19,"2",1,NA,1,0.537363
4,"2","3",20,"1",1,NA,1,0.815552
4,"2","3",21,"2",1,NA,1,0.915059
4,"2","3",22,"1",1,NA,1,0.65073
4,"2","3",24,"1",1,NA,1,0.762313
4,"2","3",28,"2",1,NA,1,0.884183
4,"2","3",30,"2",1,NA,1,0.794054
4,"2","3",31,"2",1,NA,1,0.662266
4,"2","3",32,"1",1,NA,1,0.710801
4,"2","3",35,"1",1,NA,1,0.591502
4,"2","3",36,"2",1,NA,1,0.731652
4,"2","3",38,"1",1,NA,1,0.652102
4,"2","3",39,"2",1,NA,1,0.861618
4,"2","3",40,"1",1,NA,1,0.582173
4,"2","3",41,"1",1,NA,1,0.619048
4,"2","3",42,"2",1,NA,1,0.765889
4,"2","3",43,"2",1,NA,1,0.835472
4,"2","3",44,"2",1,NA,1,0.685737
4,"2","3",48,"2",1,NA,1,1.12431
4,"2","3",50,"1",1,NA,1,0.823076
4,"2","3",51,"2",1,NA,1,0.585877
4,"2","3",52,"2",1,NA,1,0.678035
4,"2","3",53,"1",1,NA,1,0.862905
4,"2","3",54,"1",1,NA,1,0.792501
4,"2","3",56,"2",1,NA,1,0.897375
4,"2","3",57,"2",1,NA,1,0.633627
4,"2","3",58,"2",1,NA,1,0.81981
4,"2","3",59,"1",1,NA,1,0.630765
4,"2","3",60,"2",1,NA,1,0.657582
4,"2","3",62,"2",1,NA,1,0.584578
4,"2","3",64,"1",1,NA,1,0.561473
4,"2","3",65,"1",1,NA,1,0.838962
4,"2","3",66,"1",1,NA,1,0.609232
4,"2","3",67,"1",1,NA,1,0.564743
4,"2","3",69,"1",1,NA,1,1.206877
4,"2","3",70,"1",1,NA,1,0.690614
4,"2","3",72,"1",1,NA,1,0.464304
4,"2","4",4,"2",1,NA,1,0.565372
4,"2","4",5,"2",1,NA,1,0.658892
4,"2","4",6,"1",1,NA,1,0.54838
4,"2","4",8,"2",1,NA,1,1.095064
4,"2","4",9,"1",1,NA,1,0.551395
4,"2","4",12,"2",1,NA,1,1.081191
4,"2","4",13,"1",1,NA,1,0.562288
4,"2","4",15,"1",1,NA,1,0.658885
4,"2","4",16,"1",1,NA,1,0.652426
4,"2","4",17,"1",1,NA,1,0.557908
4,"2","4",19,"1",1,NA,1,0.596939
4,"2","4",20,"2",1,NA,1,0.809234
4,"2","4",21,"1",1,NA,1,0.948711
4,"2","4",22,"2",1,NA,1,0.514013
4,"2","4",25,"2",1,NA,1,0.743478
4,"2","4",28,"1",1,NA,1,0.98675
4,"2","4",29,"1",1,NA,1,1.559149
4,"2","4",30,"2",1,NA,1,1.260015
4,"2","4",31,"2",1,NA,1,0.589695
4,"2","4",32,"2",1,NA,1,0.825907
4,"2","4",33,"1",1,NA,1,0.644825
4,"2","4",35,"2",1,NA,1,1.1666
4,"2","4",37,"2",1,NA,1,0.792006
4,"2","4",38,"2",1,NA,1,0.724256
4,"2","4",39,"2",1,NA,1,0.635141
4,"2","4",40,"1",1,NA,1,0.557327
4,"2","4",41,"2",1,NA,1,0.778821
4,"2","4",43,"1",1,NA,1,0.965191
4,"2","4",44,"1",1,NA,1,0.594861
4,"2","4",45,"1",1,NA,1,0.590025
4,"2","4",47,"1",1,NA,0,0.56967
4,"2","4",48,"1",1,NA,1,0.742474
4,"2","4",50,"2",1,NA,1,0.692284
4,"2","4",53,"2",1,NA,1,0.871438
4,"2","4",55,"1",1,NA,1,0.638654
4,"2","4",56,"2",1,NA,1,1.408881
4,"2","4",57,"2",1,NA,1,0.82862
4,"2","4",59,"1",1,NA,1,0.790928
4,"2","4",60,"2",1,NA,1,0.563142
4,"2","4",61,"1",1,NA,1,1.064624
4,"2","4",62,"1",1,NA,1,1.090354
4,"2","4",63,"1",1,NA,1,0.818686
4,"2","4",67,"1",1,NA,1,0.535266
4,"2","4",68,"2",1,NA,1,0.733472
4,"2","4",69,"2",1,NA,1,0.63631
4,"2","4",70,"2",1,NA,1,1.438572
4,"2","4",74,"2",1,NA,1,0.978629
4,"3","1",4,"2",1,NA,1,0.620286
4,"3","1",9,"1",1,NA,1,0.616933
4,"3","1",10,"2",1,NA,1,0.636456
4,"3","1",11,"2",1,NA,1,0.686671
4,"3","1",12,"1",1,NA,1,0.510902
4,"3","1",13,"1",1,NA,1,0.646398
4,"3","1",15,"1",1,NA,1,0.549769
4,"3","1",16,"1",1,NA,1,0.507943
4,"3","1",18,"1",1,NA,1,0.809007
4,"3","1",19,"1",1,NA,1,0.57255
4,"3","1",20,"1",1,NA,1,0.53741
4,"3","1",21,"2",1,NA,1,0.575598
4,"3","1",22,"2",1,NA,1,0.6035
4,"3","1",23,"2",1,NA,1,0.583004
4,"3","1",26,"2",1,NA,1,0.51755
4,"3","1",27,"2",1,NA,1,0.676373
4,"3","1",28,"1",1,NA,1,0.453291
4,"3","1",29,"2",1,NA,1,0.806774
4,"3","1",30,"1",1,NA,1,0.602442
4,"3","1",31,"1",1,NA,0,0.548905
4,"3","1",34,"2",1,NA,1,0.645541
4,"3","1",35,"2",1,NA,1,0.743791
4,"3","1",36,"2",1,NA,1,0.622002
4,"3","1",38,"2",1,NA,1,0.691839
4,"3","1",39,"1",1,NA,1,0.531032
4,"3","1",40,"1",1,NA,1,0.513899
4,"3","1",41,"2",1,NA,1,0.617416
4,"3","1",42,"2",1,NA,1,0.620292
4,"3","1",43,"1",1,NA,1,0.607169
4,"3","1",44,"1",1,NA,1,0.554695
4,"3","1",46,"2",1,NA,1,0.857115
4,"3","1",48,"2",1,NA,1,0.480553
4,"3","1",49,"1",1,NA,1,0.465361
4,"3","1",52,"2",1,NA,1,0.629907
4,"3","1",54,"1",1,NA,1,0.440224
4,"3","1",57,"1",1,NA,1,0.5504
4,"3","1",59,"2",1,NA,1,0.51339
4,"3","1",60,"1",1,NA,1,0.5129
4,"3","1",61,"2",1,NA,1,0.752415
4,"3","1",62,"1",1,NA,1,0.50197
4,"3","1",63,"2",1,NA,1,0.653491
4,"3","1",65,"2",1,NA,0,0.420274
4,"3","1",68,"1",1,NA,1,0.501439
4,"3","1",69,"1",1,NA,1,0.524906
4,"3","1",71,"1",1,NA,1,0.530696
4,"3","1",72,"2",1,NA,1,0.64847
4,"3","1",73,"2",1,NA,1,0.610751
4,"3","2",4,"2",1,NA,1,0.529054
4,"3","2",5,"1",1,NA,1,0.599891
4,"3","2",6,"2",1,NA,1,0.65212
4,"3","2",8,"1",1,NA,1,0.481828
4,"3","2",11,"1",1,NA,1,0.675777
4,"3","2",12,"1",1,NA,1,0.44366
4,"3","2",14,"2",1,NA,1,0.90339
4,"3","2",15,"1",1,NA,1,0.519016
4,"3","2",17,"1",1,NA,1,0.64337
4,"3","2",18,"1",1,NA,1,0.549624
4,"3","2",19,"2",1,NA,1,0.650763
4,"3","2",20,"2",1,NA,1,0.59632
4,"3","2",22,"1",1,NA,1,0.572733
4,"3","2",23,"1",1,NA,1,0.70556
4,"3","2",24,"1",1,NA,1,0.577154
4,"3","2",27,"2",1,NA,1,0.610318
4,"3","2",28,"1",1,NA,1,0.516873
4,"3","2",29,"2",1,NA,1,0.580367
4,"3","2",31,"1",1,NA,1,0.530076
4,"3","2",33,"1",1,NA,1,0.629145
4,"3","2",34,"1",1,NA,1,0.656041
4,"3","2",35,"2",1,NA,1,0.681571
4,"3","2",36,"2",1,NA,1,0.577462
4,"3","2",37,"1",1,NA,1,0.654302
4,"3","2",38,"1",1,NA,1,0.639855
4,"3","2",39,"1",1,NA,1,0.578075
4,"3","2",40,"2",1,NA,1,0.774954
4,"3","2",41,"1",1,NA,1,0.619877
4,"3","2",42,"1",1,NA,1,0.558763
4,"3","2",44,"2",1,NA,1,0.573496
4,"3","2",48,"2",1,NA,1,0.683632
4,"3","2",51,"2",1,NA,1,0.666323
4,"3","2",52,"1",1,NA,1,0.650897
4,"3","2",56,"1",1,NA,1,0.544538
4,"3","2",57,"2",1,NA,1,0.686741
4,"3","2",58,"2",1,NA,1,0.654936
4,"3","2",59,"2",1,NA,1,0.672491
4,"3","2",61,"2",1,NA,1,0.68932
4,"3","2",62,"1",1,NA,1,0.665533
4,"3","2",63,"2",1,NA,1,0.65907
4,"3","2",64,"2",1,NA,1,0.620637
4,"3","2",67,"2",1,NA,1,0.669921
4,"3","2",68,"1",1,NA,1,0.589811
4,"3","2",69,"2",1,NA,1,0.642035
4,"3","2",71,"1",1,NA,1,0.591094
4,"3","2",73,"2",1,NA,1,0.620196
4,"3","2",74,"2",1,NA,1,0.695015
4,"3","3",4,"1",1,NA,1,1.181402
4,"3","3",5,"2",1,NA,0,0.578503
4,"3","3",7,"2",1,NA,1,0.644962
4,"3","3",8,"2",1,NA,1,0.719152
4,"3","3",9,"2",1,NA,1,0.693043
4,"3","3",10,"1",1,NA,1,0.645319
4,"3","3",11,"1",1,NA,1,0.927581
4,"3","3",12,"2",1,NA,1,0.686518
4,"3","3",13,"1",1,NA,1,0.574803
4,"3","3",16,"2",1,NA,1,0.579723
4,"3","3",19,"2",1,NA,1,0.689037
4,"3","3",20,"1",1,NA,1,0.601302
4,"3","3",21,"2",1,NA,1,0.636827
4,"3","3",22,"1",1,NA,1,0.591044
4,"3","3",24,"1",1,NA,1,0.549118
4,"3","3",28,"2",1,NA,1,0.64258
4,"3","3",30,"2",1,NA,1,0.598358
4,"3","3",31,"2",1,NA,1,0.578535
4,"3","3",32,"1",1,NA,1,0.590381
4,"3","3",35,"1",1,NA,1,0.660375
4,"3","3",36,"2",1,NA,1,0.829952
4,"3","3",38,"1",1,NA,1,0.68651
4,"3","3",39,"2",1,NA,1,0.55877
4,"3","3",40,"1",1,NA,1,0.54026
4,"3","3",41,"1",1,NA,1,0.59345
4,"3","3",42,"2",1,NA,1,0.66163
4,"3","3",43,"2",1,NA,1,0.647156
4,"3","3",44,"2",1,NA,1,0.609385
4,"3","3",48,"2",1,NA,1,0.751206
4,"3","3",50,"1",1,NA,1,0.614356
4,"3","3",51,"2",1,NA,1,0.721909
4,"3","3",52,"2",1,NA,1,0.632817
4,"3","3",53,"1",1,NA,1,0.579711
4,"3","3",54,"1",1,NA,1,0.624536
4,"3","3",56,"2",1,NA,1,0.69938
4,"3","3",57,"2",1,NA,1,0.579594
4,"3","3",58,"2",1,NA,1,0.592453
4,"3","3",59,"1",1,NA,1,0.684666
4,"3","3",60,"2",1,NA,1,0.684912
4,"3","3",62,"2",1,NA,1,0.612049
4,"3","3",64,"1",1,NA,1,0.513456
4,"3","3",65,"1",1,NA,1,0.584958
4,"3","3",66,"1",1,NA,1,0.597133
4,"3","3",67,"1",1,NA,1,0.561356
4,"3","3",69,"1",1,NA,1,0.704388
4,"3","3",70,"1",1,NA,1,0.551997
4,"3","3",72,"1",1,NA,1,0.56176
4,"3","4",4,"2",1,NA,1,0.619243
4,"3","4",5,"2",1,NA,0,0.74213
4,"3","4",6,"1",1,NA,1,0.564394
4,"3","4",8,"2",1,NA,1,0.591431
4,"3","4",9,"1",1,NA,1,0.571645
4,"3","4",12,"2",1,NA,1,0.680222
4,"3","4",13,"1",1,NA,1,0.552092
4,"3","4",15,"1",1,NA,1,0.921825
4,"3","4",16,"1",1,NA,1,0.656829
4,"3","4",17,"1",1,NA,1,0.538364
4,"3","4",19,"1",1,NA,1,0.517395
4,"3","4",20,"2",1,NA,1,0.980241
4,"3","4",21,"1",1,NA,1,0.54423
4,"3","4",22,"2",1,NA,1,0.694394
4,"3","4",25,"2",1,NA,1,0.601742
4,"3","4",28,"1",1,NA,1,0.613037
4,"3","4",29,"1",1,NA,1,0.655565
4,"3","4",30,"2",1,NA,1,0.665119
4,"3","4",31,"2",1,NA,1,0.730665
4,"3","4",32,"2",1,NA,1,0.625569
4,"3","4",33,"1",1,NA,1,0.652471
4,"3","4",35,"2",1,NA,1,0.627544
4,"3","4",37,"2",1,NA,1,0.608932
4,"3","4",38,"2",1,NA,1,0.58846
4,"3","4",39,"2",1,NA,1,0.648675
4,"3","4",40,"1",1,NA,1,0.658921
4,"3","4",41,"2",1,NA,1,0.51641
4,"3","4",43,"1",1,NA,1,0.681434
4,"3","4",44,"1",1,NA,1,0.586345
4,"3","4",45,"1",1,NA,1,0.677546
4,"3","4",47,"1",1,NA,1,0.672694
4,"3","4",48,"1",1,NA,1,0.721547
4,"3","4",50,"2",1,NA,1,0.561985
4,"3","4",53,"2",1,NA,1,0.640892
4,"3","4",55,"1",1,NA,1,0.515988
4,"3","4",56,"2",1,NA,1,0.619503
4,"3","4",57,"2",1,NA,1,0.598378
4,"3","4",59,"1",1,NA,1,0.558107
4,"3","4",60,"2",1,NA,1,0.62761
4,"3","4",61,"1",1,NA,1,0.573487
4,"3","4",62,"1",1,NA,1,0.67435
4,"3","4",63,"1",1,NA,1,0.57925
4,"3","4",67,"1",1,NA,1,0.598058
4,"3","4",68,"2",1,NA,1,0.682278
4,"3","4",69,"2",1,NA,1,0.571161
4,"3","4",70,"2",1,NA,1,0.591016
4,"3","4",74,"2",1,NA,1,0.569126
4,"4","1",4,"2",1,NA,1,0.738286
4,"4","1",9,"1",1,NA,1,0.489828
4,"4","1",10,"2",1,NA,1,0.458019
4,"4","1",11,"2",1,NA,1,0.803498
4,"4","1",12,"1",1,NA,1,0.567177
4,"4","1",13,"1",1,NA,1,0.700048
4,"4","1",15,"1",1,NA,1,0.505796
4,"4","1",16,"1",1,NA,1,0.720349
4,"4","1",18,"1",1,NA,1,0.537465
4,"4","1",19,"1",1,NA,1,0.49562
4,"4","1",20,"1",1,NA,1,0.527845
4,"4","1",21,"2",1,NA,1,0.478686
4,"4","1",22,"2",1,NA,1,0.65552
4,"4","1",23,"2",1,NA,1,0.545107
4,"4","1",26,"2",1,NA,1,0.676761
4,"4","1",27,"2",1,NA,1,0.70172
4,"4","1",28,"1",1,NA,1,0.853315
4,"4","1",29,"2",1,NA,1,0.742976
4,"4","1",30,"1",1,NA,1,0.605263
4,"4","1",31,"1",1,NA,1,0.872802
4,"4","1",34,"2",1,NA,1,0.736672
4,"4","1",35,"2",1,NA,1,0.670955
4,"4","1",36,"2",1,NA,0,0.511875
4,"4","1",38,"2",1,NA,1,0.70629
4,"4","1",39,"1",1,NA,1,0.593923
4,"4","1",40,"1",1,NA,1,0.598119
4,"4","1",41,"2",1,NA,1,1.201342
4,"4","1",42,"2",1,NA,1,0.677163
4,"4","1",43,"1",1,NA,1,0.710062
4,"4","1",44,"1",1,NA,1,0.581636
4,"4","1",46,"2",1,NA,1,0.67146
4,"4","1",48,"2",1,NA,1,0.683758
4,"4","1",49,"1",1,NA,1,0.748031
4,"4","1",52,"2",1,NA,1,0.512723
4,"4","1",54,"1",1,NA,1,0.607811
4,"4","1",57,"1",1,NA,1,0.659455
4,"4","1",59,"2",1,NA,1,0.473885
4,"4","1",60,"1",1,NA,1,0.410711
4,"4","1",61,"2",1,NA,1,0.56622
4,"4","1",62,"1",1,NA,1,0.683789
4,"4","1",63,"2",1,NA,1,0.652058
4,"4","1",65,"2",1,NA,1,0.956145
4,"4","1",68,"1",1,NA,1,0.527328
4,"4","1",69,"1",1,NA,1,0.846177
4,"4","1",71,"1",1,NA,1,0.664109
4,"4","1",72,"2",1,NA,1,0.689706
4,"4","1",73,"2",1,NA,1,0.58496
4,"4","2",4,"2",1,NA,1,0.713719
4,"4","2",5,"1",1,NA,1,0.560327
4,"4","2",6,"2",1,NA,1,0.653839
4,"4","2",8,"1",1,NA,1,0.540978
4,"4","2",11,"1",1,NA,1,0.484248
4,"4","2",12,"1",1,NA,1,0.524432
4,"4","2",14,"2",1,NA,1,0.667231
4,"4","2",15,"1",1,NA,1,0.524134
4,"4","2",17,"1",1,NA,1,0.494547
4,"4","2",18,"1",1,NA,1,0.478769
4,"4","2",19,"2",1,NA,1,0.58358
4,"4","2",20,"2",1,NA,1,0.556481
4,"4","2",22,"1",1,NA,1,0.620014
4,"4","2",23,"1",1,NA,0,0.694873
4,"4","2",24,"1",1,NA,1,0.655193
4,"4","2",27,"2",1,NA,1,0.585824
4,"4","2",28,"1",1,NA,1,0.510033
4,"4","2",29,"2",1,NA,1,0.997605
4,"4","2",31,"1",1,NA,1,0.685848
4,"4","2",33,"1",1,NA,1,0.689753
4,"4","2",34,"1",1,NA,1,0.618014
4,"4","2",35,"2",1,NA,1,0.644903
4,"4","2",36,"2",1,NA,1,0.535149
4,"4","2",37,"1",1,NA,1,0.692374
4,"4","2",38,"1",1,NA,1,0.764636
4,"4","2",39,"1",1,NA,1,0.586246
4,"4","2",40,"2",1,NA,1,0.846483
4,"4","2",41,"1",1,NA,1,0.56879
4,"4","2",42,"1",1,NA,1,0.525647
4,"4","2",44,"2",1,NA,0,0.791444
4,"4","2",48,"2",1,NA,1,1.232921
4,"4","2",51,"2",1,NA,1,0.875151
4,"4","2",52,"1",1,NA,1,0.596149
4,"4","2",56,"1",1,NA,1,1.435405
4,"4","2",57,"2",1,NA,1,0.621963
4,"4","2",58,"2",1,NA,1,0.496849
4,"4","2",59,"2",1,NA,1,0.753007
4,"4","2",61,"2",1,NA,1,0.734017
4,"4","2",62,"1",1,NA,1,0.588271
4,"4","2",63,"2",1,NA,1,0.584488
4,"4","2",64,"2",1,NA,1,0.90075
4,"4","2",67,"2",1,NA,1,0.80093
4,"4","2",68,"1",1,NA,1,0.588527
4,"4","2",69,"2",1,NA,1,0.599762
4,"4","2",71,"1",1,NA,1,0.548895
4,"4","2",73,"2",1,NA,0,0.500046
4,"4","2",74,"2",1,NA,1,1.052222
4,"4","3",4,"1",1,NA,1,0.731958
4,"4","3",5,"2",1,NA,1,0.610905
4,"4","3",7,"2",1,NA,1,0.758152
4,"4","3",8,"2",1,NA,1,0.970747
4,"4","3",9,"2",1,NA,1,0.655825
4,"4","3",10,"1",1,NA,1,1.089404
4,"4","3",11,"1",1,NA,1,0.713844
4,"4","3",12,"2",1,NA,1,0.577412
4,"4","3",13,"1",1,NA,1,0.550318
4,"4","3",16,"2",1,NA,1,0.66797
4,"4","3",19,"2",1,NA,1,0.600671
4,"4","3",20,"1",1,NA,1,1.252294
4,"4","3",21,"2",1,NA,1,0.758085
4,"4","3",22,"1",1,NA,1,0.65172
4,"4","3",24,"1",1,NA,0,0.551277
4,"4","3",28,"2",1,NA,1,0.642035
4,"4","3",30,"2",1,NA,1,0.762494
4,"4","3",31,"2",1,NA,1,0.808086
4,"4","3",32,"1",1,NA,1,0.530761
4,"4","3",35,"1",1,NA,1,0.616061
4,"4","3",36,"2",1,NA,1,0.723636
4,"4","3",38,"1",1,NA,1,0.457517
4,"4","3",39,"2",1,NA,1,0.555026
4,"4","3",40,"1",1,NA,1,0.575542
4,"4","3",41,"1",1,NA,1,0.644451
4,"4","3",42,"2",1,NA,1,0.630679
4,"4","3",43,"2",1,NA,0,0.537572
4,"4","3",44,"2",1,NA,1,0.919771
4,"4","3",48,"2",1,NA,1,0.460487
4,"4","3",50,"1",1,NA,1,0.497489
4,"4","3",51,"2",1,NA,1,0.465662
4,"4","3",52,"2",1,NA,0,0.379149
4,"4","3",53,"1",1,NA,1,0.551951
4,"4","3",54,"1",1,NA,1,0.373495
4,"4","3",56,"2",1,NA,1,0.647947
4,"4","3",57,"2",1,NA,1,0.697162
4,"4","3",58,"2",1,NA,1,0.625427
4,"4","3",59,"1",1,NA,1,0.548323
4,"4","3",60,"2",1,NA,1,0.834561
4,"4","3",62,"2",1,NA,1,0.615768
4,"4","3",64,"1",1,NA,1,0.550167
4,"4","3",65,"1",1,NA,1,0.524252
4,"4","3",66,"1",1,NA,1,0.555126
4,"4","3",67,"1",1,NA,1,0.528646
4,"4","3",69,"1",1,NA,1,0.590427
4,"4","3",70,"1",1,NA,1,0.578669
4,"4","3",72,"1",1,NA,1,0.421757
4,"4","4",4,"2",1,NA,1,0.706629
4,"4","4",5,"2",1,NA,1,1.306274
4,"4","4",6,"1",1,NA,1,0.433064
4,"4","4",8,"2",1,NA,1,0.542789
4,"4","4",9,"1",1,NA,1,0.637003
4,"4","4",12,"2",1,NA,1,0.83093
4,"4","4",13,"1",1,NA,1,0.545938
4,"4","4",15,"1",1,NA,1,0.562027
4,"4","4",16,"1",1,NA,1,0.647536
4,"4","4",17,"1",1,NA,1,0.545816
4,"4","4",19,"1",1,NA,1,0.57973
4,"4","4",20,"2",1,NA,1,1.016624
4,"4","4",21,"1",1,NA,1,0.644323
4,"4","4",22,"2",1,NA,1,0.629584
4,"4","4",25,"2",1,NA,1,0.61835
4,"4","4",28,"1",1,NA,1,0.903093
4,"4","4",29,"1",1,NA,1,0.478763
4,"4","4",30,"2",1,NA,1,0.534606
4,"4","4",31,"2",1,NA,1,0.372824
4,"4","4",32,"2",1,NA,1,0.521592
4,"4","4",33,"1",1,NA,1,0.544449
4,"4","4",35,"2",1,NA,1,0.376154
4,"4","4",37,"2",1,NA,1,0.593843
4,"4","4",38,"2",1,NA,1,0.709096
4,"4","4",39,"2",1,NA,1,0.532644
4,"4","4",40,"1",1,NA,1,0.675488
4,"4","4",41,"2",1,NA,1,0.548413
4,"4","4",43,"1",1,NA,1,0.584167
4,"4","4",44,"1",1,NA,1,0.548391
4,"4","4",45,"1",1,NA,1,0.538585
4,"4","4",47,"1",1,NA,1,0.61466
4,"4","4",48,"1",1,NA,1,0.650189
4,"4","4",50,"2",1,NA,1,0.451304
4,"4","4",53,"2",1,NA,1,0.829235
4,"4","4",55,"1",1,NA,1,0.520232
4,"4","4",56,"2",1,NA,1,0.511074
4,"4","4",57,"2",1,NA,1,0.558598
4,"4","4",59,"1",1,NA,1,0.532303
4,"4","4",60,"2",1,NA,1,0.83525
4,"4","4",61,"1",1,NA,1,0.541517
4,"4","4",62,"1",1,NA,1,0.89175
4,"4","4",63,"1",1,NA,1,0.676061
4,"4","4",67,"1",1,NA,1,0.423866
4,"4","4",68,"2",1,NA,1,0.730703
4,"4","4",69,"2",1,NA,1,0.489638
4,"4","4",70,"2",1,NA,1,0.577847
4,"4","4",74,"2",1,NA,1,0.717021
4,"5","1",4,"2",1,NA,1,0.839235
4,"5","1",9,"1",1,NA,1,0.616659
4,"5","1",10,"2",1,NA,1,0.572211
4,"5","1",11,"2",1,NA,1,0.593002
4,"5","1",12,"1",1,NA,1,0.581201
4,"5","1",13,"1",1,NA,1,1.010055
4,"5","1",15,"1",1,NA,1,0.726559
4,"5","1",16,"1",1,NA,1,0.636479
4,"5","1",18,"1",1,NA,1,0.781501
4,"5","1",19,"1",1,NA,1,0.586364
4,"5","1",20,"1",1,NA,1,0.662582
4,"5","1",21,"2",1,NA,1,0.672091
4,"5","1",22,"2",1,NA,1,0.984978
4,"5","1",23,"2",1,NA,1,0.837329
4,"5","1",26,"2",1,NA,1,0.696339
4,"5","1",27,"2",1,NA,1,1.128555
4,"5","1",28,"1",1,NA,1,1.255609
4,"5","1",29,"2",1,NA,1,0.649375
4,"5","1",30,"1",1,NA,1,0.531535
4,"5","1",31,"1",1,NA,1,0.817402
4,"5","1",34,"2",1,NA,1,0.640627
4,"5","1",35,"2",1,NA,1,1.002818
4,"5","1",36,"2",1,NA,1,0.55049
4,"5","1",38,"2",1,NA,1,0.724207
4,"5","1",39,"1",1,NA,1,0.546091
4,"5","1",40,"1",1,NA,1,0.576247
4,"5","1",41,"2",1,NA,1,0.781047
4,"5","1",42,"2",1,NA,1,0.810004
4,"5","1",43,"1",1,NA,1,0.605587
4,"5","1",44,"1",1,NA,1,0.745113
4,"5","1",46,"2",1,NA,1,0.64489
4,"5","1",48,"2",1,NA,1,0.554893
4,"5","1",49,"1",1,NA,1,0.720437
4,"5","1",52,"2",1,NA,1,0.864324
4,"5","1",54,"1",1,NA,1,0.579564
4,"5","1",57,"1",1,NA,1,0.655079
4,"5","1",59,"2",1,NA,1,0.561416
4,"5","1",60,"1",1,NA,1,0.630937
4,"5","1",61,"2",1,NA,1,0.585753
4,"5","1",62,"1",1,NA,1,0.469933
4,"5","1",63,"2",1,NA,1,0.614723
4,"5","1",65,"2",1,NA,1,0.726078
4,"5","1",68,"1",1,NA,1,0.454002
4,"5","1",69,"1",1,NA,1,0.671432
4,"5","1",71,"1",1,NA,1,0.527849
4,"5","1",72,"2",1,NA,1,0.781676
4,"5","1",73,"2",1,NA,1,0.634581
4,"5","2",4,"2",1,NA,1,0.82833
4,"5","2",5,"1",1,NA,1,0.519203
4,"5","2",6,"2",1,NA,0,0.798009
4,"5","2",8,"1",1,NA,1,0.583129
4,"5","2",11,"1",1,NA,1,0.782047
4,"5","2",12,"1",1,NA,1,0.54696
4,"5","2",14,"2",1,NA,1,0.699307
4,"5","2",15,"1",1,NA,1,0.531504
4,"5","2",17,"1",1,NA,1,0.510116
4,"5","2",18,"1",1,NA,1,0.461624
4,"5","2",19,"2",1,NA,1,0.559087
4,"5","2",20,"2",1,NA,1,0.700543
4,"5","2",22,"1",1,NA,1,0.530281
4,"5","2",23,"1",1,NA,1,0.449055
4,"5","2",24,"1",1,NA,1,0.659223
4,"5","2",27,"2",1,NA,1,0.816734
4,"5","2",28,"1",1,NA,1,0.524319
4,"5","2",29,"2",1,NA,1,0.755136
4,"5","2",31,"1",1,NA,1,0.566202
4,"5","2",33,"1",1,NA,1,0.737249
4,"5","2",34,"1",1,NA,1,0.622494
4,"5","2",35,"2",1,NA,1,0.569346
4,"5","2",36,"2",1,NA,1,0.454171
4,"5","2",37,"1",1,NA,0,0.455633
4,"5","2",38,"1",1,NA,1,0.577136
4,"5","2",39,"1",1,NA,1,0.853916
4,"5","2",40,"2",1,NA,1,0.791624
4,"5","2",41,"1",1,NA,1,0.554785
4,"5","2",42,"1",1,NA,1,0.536287
4,"5","2",44,"2",1,NA,1,0.616715
4,"5","2",48,"2",1,NA,1,0.754156
4,"5","2",51,"2",1,NA,1,0.610452
4,"5","2",52,"1",1,NA,1,0.765959
4,"5","2",56,"1",1,NA,1,0.626952
4,"5","2",57,"2",1,NA,1,0.780798
4,"5","2",58,"2",1,NA,1,0.617711
4,"5","2",59,"2",1,NA,1,0.628597
4,"5","2",61,"2",1,NA,1,0.659576
4,"5","2",62,"1",1,NA,1,0.437133
4,"5","2",63,"2",1,NA,1,0.655223
4,"5","2",64,"2",1,NA,1,0.688791
4,"5","2",67,"2",1,NA,1,0.71638
4,"5","2",68,"1",1,NA,1,0.971911
4,"5","2",69,"2",1,NA,1,0.648912
4,"5","2",71,"1",1,NA,1,0.574608
4,"5","2",73,"2",1,NA,1,0.700646
4,"5","2",74,"2",1,NA,1,1.108228
4,"5","3",4,"1",1,NA,1,0.809577
4,"5","3",5,"2",1,NA,1,0.60516
4,"5","3",7,"2",1,NA,0,0.666223
4,"5","3",8,"2",1,NA,1,0.715726
4,"5","3",9,"2",1,NA,1,0.619286
4,"5","3",10,"1",1,NA,1,0.621142
4,"5","3",11,"1",1,NA,1,0.848007
4,"5","3",12,"2",1,NA,1,0.738282
4,"5","3",13,"1",1,NA,1,0.672509
4,"5","3",16,"2",1,NA,1,0.693117
4,"5","3",19,"2",1,NA,1,0.699355
4,"5","3",20,"1",1,NA,1,0.603529
4,"5","3",21,"2",1,NA,1,0.831085
4,"5","3",22,"1",1,NA,1,0.482002
4,"5","3",24,"1",1,NA,1,0.795692
4,"5","3",28,"2",1,NA,1,0.932911
4,"5","3",30,"2",1,NA,1,0.861353
4,"5","3",31,"2",1,NA,1,1.142996
4,"5","3",32,"1",1,NA,1,0.620483
4,"5","3",35,"1",1,NA,1,0.779039
4,"5","3",36,"2",1,NA,1,0.816006
4,"5","3",38,"1",1,NA,1,0.779168
4,"5","3",39,"2",1,NA,1,0.712078
4,"5","3",40,"1",1,NA,1,0.607619
4,"5","3",41,"1",1,NA,1,0.546082
4,"5","3",42,"2",1,NA,1,0.976336
4,"5","3",43,"2",1,NA,1,0.629295
4,"5","3",44,"2",1,NA,1,0.744119
4,"5","3",48,"2",1,NA,1,0.617003
4,"5","3",50,"1",1,NA,1,0.532455
4,"5","3",51,"2",1,NA,1,0.539257
4,"5","3",52,"2",1,NA,1,0.689465
4,"5","3",53,"1",1,NA,1,0.537624
4,"5","3",54,"1",1,NA,1,0.591799
4,"5","3",56,"2",1,NA,1,0.858586
4,"5","3",57,"2",1,NA,1,0.53214
4,"5","3",58,"2",1,NA,1,0.578974
4,"5","3",59,"1",1,NA,1,0.575814
4,"5","3",60,"2",1,NA,1,0.612628
4,"5","3",62,"2",1,NA,1,0.847718
4,"5","3",64,"1",1,NA,1,0.584197
4,"5","3",65,"1",1,NA,1,0.603376
4,"5","3",66,"1",1,NA,1,0.510887
4,"5","3",67,"1",1,NA,1,0.558362
4,"5","3",69,"1",1,NA,1,0.7334
4,"5","3",70,"1",1,NA,1,0.51628
4,"5","3",72,"1",1,NA,1,0.449888
4,"5","4",4,"2",1,NA,1,0.593852
4,"5","4",5,"2",1,NA,1,0.614064
4,"5","4",6,"1",1,NA,1,0.473539
4,"5","4",8,"2",1,NA,1,0.564484
4,"5","4",9,"1",1,NA,1,0.56198
4,"5","4",12,"2",1,NA,1,0.865407
4,"5","4",13,"1",1,NA,1,0.691085
4,"5","4",15,"1",1,NA,1,0.512116
4,"5","4",16,"1",1,NA,1,0.903583
4,"5","4",17,"1",1,NA,1,0.559226
4,"5","4",19,"1",1,NA,1,0.545876
4,"5","4",20,"2",1,NA,1,0.776041
4,"5","4",21,"1",1,NA,1,0.55697
4,"5","4",22,"2",1,NA,1,0.762451
4,"5","4",25,"2",1,NA,0,0.556402
4,"5","4",28,"1",1,NA,1,0.641983
4,"5","4",29,"1",1,NA,1,0.53215
4,"5","4",30,"2",1,NA,1,1.059014
4,"5","4",31,"2",1,NA,1,0.972699
4,"5","4",32,"2",1,NA,1,0.793689
4,"5","4",33,"1",1,NA,1,0.525863
4,"5","4",35,"2",1,NA,1,0.62729
4,"5","4",37,"2",1,NA,1,0.497668
4,"5","4",38,"2",1,NA,1,0.969817
4,"5","4",39,"2",1,NA,1,0.590788
4,"5","4",40,"1",1,NA,1,0.834978
4,"5","4",41,"2",1,NA,1,0.973266
4,"5","4",43,"1",1,NA,1,0.706772
4,"5","4",44,"1",1,NA,1,0.530312
4,"5","4",45,"1",1,NA,1,0.561136
4,"5","4",47,"1",1,NA,1,0.594139
4,"5","4",48,"1",1,NA,1,0.590312
4,"5","4",50,"2",1,NA,1,0.603974
4,"5","4",53,"2",1,NA,1,0.548267
4,"5","4",55,"1",1,NA,1,0.671393
4,"5","4",56,"2",1,NA,1,0.792278
4,"5","4",57,"2",1,NA,1,0.676483
4,"5","4",59,"1",1,NA,1,0.473855
4,"5","4",60,"2",1,NA,1,0.906669
4,"5","4",61,"1",1,NA,1,0.650282
4,"5","4",62,"1",1,NA,1,0.796534
4,"5","4",63,"1",1,NA,1,0.616781
4,"5","4",67,"1",1,NA,1,0.56034
4,"5","4",68,"2",1,NA,1,0.573883
4,"5","4",69,"2",1,NA,1,0.626688
4,"5","4",70,"2",1,NA,1,1.037533
4,"5","4",74,"2",1,NA,1,0.867287
4,"6","1",4,"2",1,NA,1,0.659943
4,"6","1",9,"1",1,NA,1,0.736679
4,"6","1",10,"2",1,NA,1,0.614901
4,"6","1",11,"2",1,NA,1,0.794477
4,"6","1",12,"1",1,NA,1,0.646692
4,"6","1",13,"1",1,NA,1,0.62486
4,"6","1",15,"1",1,NA,1,0.615572
4,"6","1",16,"1",1,NA,1,0.779087
4,"6","1",18,"1",1,NA,1,0.846834
4,"6","1",19,"1",1,NA,1,0.489066
4,"6","1",20,"1",1,NA,1,0.545268
4,"6","1",21,"2",1,NA,0,0.687362
4,"6","1",23,"2",1,NA,1,0.675313
4,"6","1",26,"2",1,NA,1,0.53922
4,"6","1",27,"2",1,NA,1,0.641408
4,"6","1",28,"1",1,NA,1,0.579575
4,"6","1",29,"2",1,NA,1,0.752438
4,"6","1",30,"1",1,NA,1,0.66998
4,"6","1",31,"1",1,NA,1,0.661849
4,"6","1",34,"2",1,NA,1,0.615727
4,"6","1",35,"2",1,NA,1,0.635241
4,"6","1",36,"2",1,NA,1,0.709478
4,"6","1",38,"2",1,NA,1,0.540492
4,"6","1",39,"1",1,NA,1,0.593666
4,"6","1",40,"1",1,NA,1,0.573811
4,"6","1",41,"2",1,NA,1,0.650669
4,"6","1",42,"2",1,NA,1,0.516213
4,"6","1",43,"1",1,NA,1,0.627684
4,"6","1",44,"1",1,NA,1,0.574583
4,"6","1",46,"2",1,NA,1,0.645467
4,"6","1",48,"2",1,NA,1,0.433539
4,"6","1",49,"1",1,NA,1,0.476282
4,"6","1",52,"2",1,NA,1,0.536999
4,"6","1",54,"1",1,NA,1,0.601331
4,"6","1",57,"1",1,NA,1,0.472233
4,"6","1",59,"2",1,NA,1,0.525988
4,"6","1",60,"1",1,NA,1,0.532797
4,"6","1",61,"2",1,NA,1,0.635592
4,"6","1",62,"1",1,NA,1,0.50978
4,"6","1",63,"2",1,NA,1,0.685278
4,"6","1",65,"2",1,NA,1,0.801316
4,"6","1",68,"1",1,NA,1,0.567238
4,"6","1",69,"1",1,NA,1,0.452063
4,"6","1",71,"1",1,NA,1,0.600794
4,"6","1",72,"2",1,NA,1,0.716323
4,"6","1",73,"2",1,NA,1,0.483851
4,"6","2",4,"2",1,NA,1,0.651776
4,"6","2",5,"1",1,NA,1,0.693279
4,"6","2",6,"2",1,NA,1,1.197527
4,"6","2",8,"1",1,NA,1,0.635755
4,"6","2",11,"1",1,NA,1,0.426274
4,"6","2",12,"1",1,NA,1,0.597052
4,"6","2",14,"2",1,NA,1,0.826865
4,"6","2",15,"1",1,NA,1,0.620802
4,"6","2",17,"1",1,NA,1,0.60249
4,"6","2",18,"1",1,NA,1,0.598018
4,"6","2",19,"2",1,NA,1,0.706184
4,"6","2",20,"2",1,NA,1,0.881765
4,"6","2",22,"1",1,NA,1,0.590223
4,"6","2",23,"1",1,NA,1,0.593414
4,"6","2",24,"1",1,NA,1,0.68558
4,"6","2",27,"2",1,NA,1,0.520777
4,"6","2",28,"1",1,NA,1,0.447578
4,"6","2",29,"2",1,NA,1,0.63373
4,"6","2",31,"1",1,NA,1,0.502747
4,"6","2",33,"1",1,NA,1,0.69412
4,"6","2",34,"1",1,NA,1,0.59032
4,"6","2",35,"2",1,NA,1,0.490487
4,"6","2",36,"2",1,NA,1,0.586636
4,"6","2",37,"1",1,NA,1,0.790817
4,"6","2",38,"1",1,NA,1,0.61907
4,"6","2",39,"1",1,NA,1,0.597903
4,"6","2",40,"2",1,NA,1,0.641094
4,"6","2",41,"1",1,NA,1,0.547289
4,"6","2",42,"1",1,NA,1,0.537423
4,"6","2",44,"2",1,NA,1,0.571762
4,"6","2",48,"2",1,NA,1,0.759523
4,"6","2",51,"2",1,NA,1,0.580174
4,"6","2",52,"1",1,NA,1,0.657035
4,"6","2",56,"1",1,NA,1,0.461444
4,"6","2",57,"2",1,NA,1,0.590884
4,"6","2",58,"2",1,NA,1,0.571061
4,"6","2",59,"2",1,NA,1,0.591889
4,"6","2",61,"2",1,NA,1,0.486277
4,"6","2",62,"1",1,NA,1,0.558396
4,"6","2",63,"2",1,NA,1,0.587913
4,"6","2",64,"2",1,NA,1,0.583124
4,"6","2",67,"2",1,NA,1,0.518155
4,"6","2",68,"1",1,NA,1,0.572997
4,"6","2",69,"2",1,NA,1,0.649812
4,"6","2",71,"1",1,NA,1,0.56556
4,"6","2",73,"2",1,NA,1,0.500892
4,"6","2",74,"2",1,NA,1,0.644374
4,"6","3",4,"1",1,NA,1,0.625498
4,"6","3",5,"2",1,NA,1,0.740355
4,"6","3",7,"2",1,NA,1,0.568162
4,"6","3",8,"2",1,NA,1,0.612982
4,"6","3",9,"2",1,NA,1,0.575506
4,"6","3",10,"1",1,NA,1,0.476335
4,"6","3",11,"1",1,NA,1,0.805191
4,"6","3",12,"2",1,NA,1,0.64075
4,"6","3",13,"1",1,NA,1,0.602963
4,"6","3",16,"2",1,NA,1,0.820608
4,"6","3",19,"2",1,NA,1,0.630516
4,"6","3",20,"1",1,NA,1,0.537414
4,"6","3",21,"2",1,NA,1,0.623566
4,"6","3",22,"1",1,NA,1,0.610402
4,"6","3",24,"1",1,NA,1,0.576554
4,"6","3",28,"2",1,NA,1,0.67681
4,"6","3",30,"2",1,NA,1,0.441104
4,"6","3",31,"2",1,NA,1,0.547172
4,"6","3",32,"1",1,NA,1,0.513283
4,"6","3",35,"1",1,NA,1,0.638852
4,"6","3",36,"2",1,NA,1,0.55304
4,"6","3",38,"1",1,NA,1,0.604025
4,"6","3",39,"2",1,NA,1,0.591509
4,"6","3",40,"1",1,NA,1,0.595689
4,"6","3",41,"1",1,NA,1,0.575907
4,"6","3",42,"2",1,NA,1,0.579764
4,"6","3",43,"2",1,NA,1,0.59257
4,"6","3",44,"2",1,NA,1,0.540738
4,"6","3",48,"2",1,NA,0,0.708025
4,"6","3",50,"1",1,NA,1,0.426074
4,"6","3",51,"2",1,NA,1,0.556847
4,"6","3",52,"2",1,NA,1,0.538336
4,"6","3",53,"1",1,NA,1,0.5445
4,"6","3",54,"1",1,NA,1,0.534664
4,"6","3",56,"2",1,NA,1,0.680991
4,"6","3",57,"2",1,NA,1,0.625868
4,"6","3",58,"2",1,NA,1,0.579706
4,"6","3",59,"1",1,NA,1,0.632537
4,"6","3",60,"2",1,NA,1,0.499404
4,"6","3",62,"2",1,NA,1,0.933824
4,"6","3",64,"1",1,NA,1,0.599658
4,"6","3",65,"1",1,NA,1,0.699807
4,"6","3",66,"1",1,NA,1,0.89107
4,"6","3",67,"1",1,NA,1,0.515306
4,"6","3",69,"1",1,NA,1,0.775686
4,"6","3",70,"1",1,NA,1,0.540559
4,"6","3",72,"1",1,NA,1,0.406303
4,"6","4",4,"2",1,NA,1,0.41847
4,"6","4",5,"2",1,NA,0,0.461246
4,"6","4",6,"1",1,NA,1,0.590691
4,"6","4",8,"2",1,NA,1,0.55302
4,"6","4",9,"1",1,NA,1,0.622506
4,"6","4",12,"2",1,NA,1,1.013369
4,"6","4",13,"1",1,NA,1,0.649047
4,"6","4",15,"1",1,NA,1,0.510742
4,"6","4",16,"1",1,NA,1,0.742234
4,"6","4",17,"1",1,NA,1,0.516456
4,"6","4",19,"1",1,NA,1,0.534554
4,"6","4",20,"2",1,NA,1,0.620683
4,"6","4",21,"1",1,NA,1,0.543562
4,"6","4",22,"2",1,NA,1,0.469679
4,"6","4",25,"2",1,NA,1,0.704282
4,"6","4",28,"1",1,NA,1,0.495136
4,"6","4",29,"1",1,NA,0,0.463256
4,"6","4",30,"2",1,NA,0,0.544757
4,"6","4",31,"2",1,NA,1,1.206918
4,"6","4",32,"2",1,NA,1,0.634647
4,"6","4",33,"1",1,NA,1,0.524833
4,"6","4",35,"2",1,NA,1,0.473122
4,"6","4",37,"2",1,NA,1,0.549783
4,"6","4",38,"2",1,NA,0,0.5719
4,"6","4",39,"2",1,NA,1,0.792791
4,"6","4",40,"1",1,NA,1,0.853041
4,"6","4",41,"2",1,NA,1,0.814652
4,"6","4",43,"1",1,NA,1,0.566062
4,"6","4",44,"1",1,NA,1,0.499562
4,"6","4",45,"1",1,NA,1,0.57172
4,"6","4",47,"1",1,NA,1,0.692061
4,"6","4",48,"1",1,NA,1,0.556278
4,"6","4",50,"2",1,NA,1,1.395379
4,"6","4",53,"2",1,NA,1,0.558583
4,"6","4",55,"1",1,NA,1,0.515632
4,"6","4",56,"2",1,NA,1,0.507083
4,"6","4",57,"2",1,NA,1,0.498593
4,"6","4",59,"1",1,NA,1,0.438897
4,"6","4",60,"2",1,NA,1,0.664045
4,"6","4",61,"1",1,NA,1,0.601562
4,"6","4",62,"1",1,NA,1,0.685058
4,"6","4",63,"1",1,NA,1,0.645275
4,"6","4",67,"1",1,NA,1,0.569905
4,"6","4",68,"2",1,NA,1,0.485773
4,"6","4",69,"2",1,NA,1,0.525922
4,"6","4",70,"2",1,NA,0,0.532707
4,"6","4",74,"2",1,NA,1,0.579377
4,"7","1",4,"2",1,NA,1,0.744533
4,"7","1",9,"1",1,NA,1,0.497969
4,"7","1",10,"2",1,NA,1,0.538159
4,"7","1",11,"2",1,NA,1,0.616361
4,"7","1",12,"1",1,NA,1,0.475922
4,"7","1",13,"1",1,NA,1,0.780774
4,"7","1",15,"1",1,NA,1,0.453591
4,"7","1",16,"1",1,NA,1,0.59911
4,"7","1",18,"1",1,NA,1,0.548812
4,"7","1",19,"1",1,NA,1,0.539007
4,"7","1",20,"1",1,NA,1,0.537207
4,"7","1",21,"2",1,NA,1,0.88746
4,"7","1",22,"2",1,NA,1,0.750816
4,"7","1",23,"2",1,NA,1,0.724405
4,"7","1",26,"2",1,NA,1,0.577873
4,"7","1",27,"2",1,NA,1,0.550758
4,"7","1",28,"1",1,NA,1,0.65232
4,"7","1",29,"2",1,NA,1,0.589879
4,"7","1",30,"1",1,NA,1,0.465049
4,"7","1",31,"1",1,NA,1,0.690595
4,"7","1",34,"2",1,NA,1,0.814025
4,"7","1",35,"2",1,NA,1,0.441648
4,"7","1",36,"2",1,NA,1,0.723815
4,"7","1",38,"2",1,NA,1,0.440309
4,"7","1",39,"1",1,NA,1,0.545476
4,"7","1",40,"1",1,NA,1,0.519625
4,"7","1",41,"2",1,NA,1,0.478513
4,"7","1",42,"2",1,NA,1,0.559324
4,"7","1",43,"1",1,NA,1,0.396877
4,"7","1",44,"1",1,NA,1,0.393016
4,"7","1",46,"2",1,NA,1,0.570678
4,"7","1",48,"2",1,NA,1,0.447399
4,"7","1",49,"1",1,NA,1,0.545586
4,"7","1",52,"2",1,NA,1,0.471518
4,"7","1",54,"1",1,NA,1,0.487227
4,"7","1",57,"1",1,NA,1,0.631427
4,"7","1",59,"2",1,NA,1,0.451179
4,"7","1",60,"1",1,NA,1,0.412662
4,"7","1",61,"2",1,NA,1,0.504135
4,"7","1",62,"1",1,NA,1,0.447663
4,"7","1",63,"2",1,NA,1,0.633816
4,"7","1",65,"2",1,NA,1,0.979932
4,"7","1",68,"1",1,NA,1,0.413346
4,"7","1",69,"1",1,NA,1,0.560826
4,"7","1",71,"1",1,NA,1,0.483894
4,"7","1",72,"2",1,NA,1,0.500072
4,"7","1",73,"2",1,NA,1,0.491257
4,"7","2",4,"2",1,NA,1,0.714868
4,"7","2",5,"1",1,NA,1,0.585449
4,"7","2",6,"2",1,NA,1,0.613683
4,"7","2",8,"1",1,NA,1,0.41071
4,"7","2",11,"1",1,NA,1,0.576566
4,"7","2",12,"1",1,NA,1,0.509376
4,"7","2",14,"2",1,NA,1,0.580103
4,"7","2",15,"1",1,NA,1,0.456973
4,"7","2",17,"1",1,NA,1,0.496667
4,"7","2",18,"1",1,NA,1,0.512876
4,"7","2",19,"2",1,NA,1,0.528372
4,"7","2",20,"2",1,NA,1,0.607266
4,"7","2",22,"1",1,NA,1,0.503977
4,"7","2",23,"1",1,NA,1,0.687533
4,"7","2",24,"1",1,NA,1,0.527776
4,"7","2",27,"2",1,NA,1,0.552301
4,"7","2",28,"1",1,NA,1,0.437849
4,"7","2",29,"2",1,NA,1,0.799987
4,"7","2",31,"1",1,NA,1,0.420129
4,"7","2",33,"1",1,NA,1,0.500467
4,"7","2",34,"1",1,NA,1,0.604023
4,"7","2",35,"2",1,NA,1,0.543599
4,"7","2",36,"2",1,NA,1,0.421777
4,"7","2",37,"1",1,NA,1,0.704608
4,"7","2",38,"1",1,NA,0,0.584183
4,"7","2",39,"1",1,NA,1,0.531436
4,"7","2",40,"2",1,NA,0,0.610292
4,"7","2",41,"1",1,NA,1,0.765811
4,"7","2",42,"1",1,NA,1,0.459451
4,"7","2",44,"2",1,NA,1,0.614517
4,"7","2",48,"2",1,NA,1,0.708349
4,"7","2",51,"2",1,NA,1,0.474345
4,"7","2",52,"1",1,NA,1,0.627171
4,"7","2",56,"1",1,NA,1,0.40905
4,"7","2",57,"2",1,NA,1,0.580577
4,"7","2",58,"2",1,NA,1,0.641411
4,"7","2",59,"2",1,NA,0,0.451649
4,"7","2",61,"2",1,NA,1,0.519983
4,"7","2",62,"1",1,NA,1,0.462828
4,"7","2",63,"2",1,NA,1,0.552322
4,"7","2",64,"2",1,NA,1,0.588861
4,"7","2",67,"2",1,NA,1,0.561466
4,"7","2",68,"1",1,NA,1,0.558999
4,"7","2",69,"2",1,NA,1,0.468541
4,"7","2",71,"1",1,NA,1,0.515543
4,"7","2",73,"2",1,NA,1,0.582961
4,"7","2",74,"2",1,NA,1,0.579822
4,"7","3",4,"1",1,NA,1,0.687548
4,"7","3",5,"2",1,NA,1,0.503816
4,"7","3",7,"2",1,NA,1,0.524863
4,"7","3",8,"2",1,NA,1,0.555744
4,"7","3",9,"2",1,NA,1,0.497264
4,"7","3",10,"1",1,NA,1,0.393443
4,"7","3",11,"1",1,NA,1,0.517583
4,"7","3",12,"2",1,NA,1,0.51549
4,"7","3",13,"1",1,NA,1,0.442953
4,"7","3",16,"2",1,NA,1,0.521519
4,"7","3",19,"2",1,NA,1,0.529361
4,"7","3",20,"1",1,NA,1,0.520248
4,"7","3",21,"2",1,NA,0,0.430099
4,"7","3",22,"1",1,NA,1,0.432901
4,"7","3",24,"1",1,NA,1,0.4679
4,"7","3",28,"2",1,NA,1,0.531386
4,"7","3",30,"2",1,NA,1,0.65744
4,"7","3",31,"2",1,NA,1,0.466969
4,"7","3",32,"1",1,NA,1,0.444541
4,"7","3",35,"1",1,NA,0,0.559665
4,"7","3",36,"2",1,NA,1,0.725228
4,"7","3",38,"1",1,NA,1,1.042698
4,"7","3",39,"2",1,NA,1,0.71707
4,"7","3",40,"1",1,NA,1,0.444003
4,"7","3",41,"1",1,NA,1,0.454174
4,"7","3",42,"2",1,NA,1,0.535677
4,"7","3",43,"2",1,NA,1,0.517878
4,"7","3",44,"2",1,NA,1,0.460729
4,"7","3",48,"2",1,NA,1,0.540427
4,"7","3",50,"1",1,NA,1,0.558188
4,"7","3",51,"2",1,NA,1,0.483726
4,"7","3",52,"2",1,NA,1,0.675918
4,"7","3",53,"1",1,NA,1,0.420828
4,"7","3",54,"1",1,NA,1,0.415638
4,"7","3",56,"2",1,NA,1,0.632957
4,"7","3",57,"2",1,NA,1,0.603883
4,"7","3",58,"2",1,NA,1,0.49544
4,"7","3",59,"1",1,NA,1,0.359617
4,"7","3",60,"2",1,NA,1,0.461098
4,"7","3",62,"2",1,NA,1,0.526769
4,"7","3",64,"1",1,NA,1,0.474153
4,"7","3",65,"1",1,NA,1,0.386989
4,"7","3",66,"1",1,NA,1,0.367113
4,"7","3",67,"1",1,NA,1,0.515909
4,"7","3",69,"1",1,NA,1,0.520996
4,"7","3",70,"1",1,NA,1,0.471848
4,"7","3",72,"1",1,NA,1,0.420127
4,"7","4",4,"2",1,NA,1,0.451078
4,"7","4",5,"2",1,NA,1,0.428565
4,"7","4",6,"1",1,NA,1,0.382386
4,"7","4",8,"2",1,NA,1,0.634051
4,"7","4",9,"1",1,NA,1,0.436277
4,"7","4",12,"2",1,NA,1,0.598135
4,"7","4",13,"1",1,NA,1,0.450353
4,"7","4",15,"1",1,NA,1,0.443024
4,"7","4",16,"1",1,NA,1,0.549209
4,"7","4",17,"1",1,NA,1,0.44338
4,"7","4",19,"1",1,NA,1,0.477126
4,"7","4",20,"2",1,NA,1,0.493916
4,"7","4",21,"1",1,NA,1,0.558086
4,"7","4",22,"2",1,NA,1,0.4987
4,"7","4",25,"2",1,NA,1,0.59533
4,"7","4",28,"1",1,NA,1,0.571948
4,"7","4",29,"1",1,NA,1,0.544817
4,"7","4",30,"2",1,NA,1,0.623028
4,"7","4",31,"2",1,NA,1,0.489906
4,"7","4",32,"2",1,NA,1,0.801125
4,"7","4",33,"1",1,NA,1,0.500718
4,"7","4",35,"2",1,NA,1,0.502397
4,"7","4",37,"2",1,NA,1,0.490792
4,"7","4",38,"2",1,NA,1,0.747016
4,"7","4",39,"2",1,NA,1,0.440263
4,"7","4",40,"1",1,NA,1,0.562433
4,"7","4",41,"2",1,NA,1,0.503956
4,"7","4",43,"1",1,NA,0,0.518335
4,"7","4",44,"1",1,NA,1,0.501201
4,"7","4",45,"1",1,NA,1,0.540715
4,"7","4",47,"1",1,NA,1,0.526243
4,"7","4",48,"1",1,NA,0,0.516985
4,"7","4",50,"2",1,NA,1,0.493985
4,"7","4",53,"2",1,NA,1,0.751289
4,"7","4",55,"1",1,NA,1,0.571856
4,"7","4",56,"2",1,NA,1,0.471762
4,"7","4",57,"2",1,NA,1,0.552602
4,"7","4",59,"1",1,NA,1,0.476963
4,"7","4",60,"2",1,NA,1,0.741816
4,"7","4",61,"1",1,NA,1,0.700126
4,"7","4",62,"1",1,NA,1,0.588364
4,"7","4",63,"1",1,NA,1,0.496558
4,"7","4",67,"1",1,NA,1,0.455608
4,"7","4",68,"2",1,NA,1,0.561105
4,"7","4",69,"2",1,NA,1,0.478627
4,"7","4",70,"2",1,NA,1,0.663497
4,"7","4",74,"2",1,NA,1,0.762044
4,"8","1",4,"2",1,NA,1,0.570784
4,"8","1",9,"1",1,NA,1,0.563944
4,"8","1",10,"2",1,NA,1,0.665484
4,"8","1",11,"2",1,NA,1,0.635022
4,"8","1",12,"1",1,NA,1,0.517244
4,"8","1",13,"1",1,NA,1,0.740121
4,"8","1",15,"1",1,NA,1,0.531563
4,"8","1",16,"1",1,NA,1,0.498383
4,"8","1",18,"1",1,NA,1,0.537407
4,"8","1",19,"1",1,NA,1,0.567538
4,"8","1",20,"1",1,NA,1,0.572405
4,"8","1",21,"2",1,NA,1,0.673249
4,"8","1",22,"2",1,NA,1,0.666146
4,"8","1",23,"2",1,NA,1,0.587697
4,"8","1",26,"2",1,NA,1,0.873367
4,"8","1",27,"2",1,NA,1,0.53031
4,"8","1",28,"1",1,NA,1,0.497138
4,"8","1",29,"2",1,NA,1,0.601299
4,"8","1",30,"1",1,NA,1,0.388837
4,"8","1",31,"1",1,NA,0,0.648923
4,"8","1",34,"2",1,NA,1,0.581906
4,"8","1",35,"2",1,NA,1,0.706781
4,"8","1",36,"2",1,NA,1,0.642356
4,"8","1",38,"2",1,NA,1,0.660844
4,"8","1",39,"1",1,NA,1,0.606328
4,"8","1",40,"1",1,NA,1,0.568899
4,"8","1",41,"2",1,NA,1,0.517732
4,"8","1",42,"2",1,NA,1,0.684578
4,"8","1",43,"1",1,NA,1,0.716833
4,"8","1",44,"1",1,NA,1,0.572393
4,"8","1",46,"2",1,NA,1,0.62145
4,"8","1",48,"2",1,NA,1,0.513213
4,"8","1",49,"1",1,NA,1,0.623712
4,"8","1",52,"2",1,NA,1,0.750983
4,"8","1",54,"1",1,NA,1,0.543476
4,"8","1",57,"1",1,NA,1,0.572364
4,"8","1",59,"2",1,NA,1,0.537442
4,"8","1",60,"1",1,NA,1,0.463617
4,"8","1",61,"2",1,NA,1,0.553103
4,"8","1",62,"1",1,NA,1,0.582634
4,"8","1",63,"2",1,NA,1,0.539481
4,"8","1",65,"2",1,NA,1,0.61288
4,"8","1",68,"1",1,NA,1,0.500087
4,"8","1",69,"1",1,NA,0,0.508199
4,"8","1",71,"1",1,NA,1,0.564602
4,"8","1",72,"2",1,NA,1,0.746115
4,"8","1",73,"2",1,NA,1,0.679381
4,"8","2",4,"2",1,NA,1,0.529866
4,"8","2",5,"1",1,NA,1,0.527689
4,"8","2",6,"2",1,NA,1,0.622525
4,"8","2",8,"1",1,NA,1,0.518204
4,"8","2",11,"1",1,NA,1,0.74086
4,"8","2",12,"1",1,NA,1,0.563144
4,"8","2",14,"2",1,NA,1,0.639861
4,"8","2",15,"1",1,NA,1,0.562115
4,"8","2",17,"1",1,NA,1,0.564478
4,"8","2",18,"1",1,NA,1,0.593988
4,"8","2",19,"2",1,NA,1,0.702179
4,"8","2",20,"2",1,NA,1,0.725756
4,"8","2",22,"1",1,NA,1,0.515888
4,"8","2",23,"1",1,NA,1,0.6834
4,"8","2",24,"1",1,NA,1,0.692313
4,"8","2",27,"2",1,NA,1,0.707578
4,"8","2",28,"1",1,NA,1,0.531062
4,"8","2",29,"2",1,NA,1,0.51392
4,"8","2",31,"1",1,NA,1,0.406599
4,"8","2",33,"1",1,NA,1,0.923616
4,"8","2",34,"1",1,NA,1,0.538607
4,"8","2",35,"2",1,NA,1,0.664853
4,"8","2",36,"2",1,NA,1,0.706341
4,"8","2",37,"1",1,NA,1,0.7859
4,"8","2",38,"1",1,NA,1,0.581178
4,"8","2",39,"1",1,NA,1,0.562026
4,"8","2",40,"2",1,NA,1,0.751663
4,"8","2",41,"1",1,NA,1,0.589126
4,"8","2",42,"1",1,NA,1,0.561333
4,"8","2",44,"2",1,NA,1,0.628353
4,"8","2",48,"2",1,NA,1,0.5241
4,"8","2",51,"2",1,NA,1,0.517997
4,"8","2",52,"1",1,NA,1,0.708834
4,"8","2",56,"1",1,NA,1,0.567415
4,"8","2",57,"2",1,NA,1,0.692271
4,"8","2",58,"2",1,NA,1,0.500502
4,"8","2",59,"2",1,NA,1,0.475969
4,"8","2",61,"2",1,NA,1,0.628313
4,"8","2",62,"1",1,NA,1,0.590155
4,"8","2",63,"2",1,NA,1,0.618362
4,"8","2",64,"2",1,NA,1,0.549222
4,"8","2",67,"2",1,NA,1,0.601071
4,"8","2",68,"1",1,NA,1,0.660622
4,"8","2",69,"2",1,NA,0,0.526167
4,"8","2",71,"1",1,NA,1,0.582273
4,"8","2",73,"2",1,NA,1,0.73395
4,"8","2",74,"2",1,NA,1,0.708199
4,"8","3",4,"1",1,NA,0,0.505396
4,"8","3",5,"2",1,NA,1,0.55288
4,"8","3",7,"2",1,NA,1,0.789321
4,"8","3",8,"2",1,NA,1,0.641595
4,"8","3",9,"2",1,NA,1,0.57981
4,"8","3",10,"1",1,NA,1,0.616667
4,"8","3",11,"1",1,NA,1,0.80323
4,"8","3",12,"2",1,NA,1,0.622797
4,"8","3",13,"1",1,NA,1,0.465653
4,"8","3",16,"2",1,NA,1,0.620269
4,"8","3",19,"2",1,NA,1,0.591363
4,"8","3",20,"1",1,NA,1,0.619552
4,"8","3",21,"2",1,NA,1,0.694439
4,"8","3",22,"1",1,NA,1,0.590677
4,"8","3",24,"1",1,NA,1,0.596482
4,"8","3",28,"2",1,NA,1,0.66432
4,"8","3",30,"2",1,NA,1,0.406707
4,"8","3",31,"2",1,NA,1,0.570186
4,"8","3",32,"1",1,NA,1,0.639064
4,"8","3",35,"1",1,NA,1,0.630723
4,"8","3",36,"2",1,NA,1,0.625616
4,"8","3",38,"1",1,NA,1,0.547976
4,"8","3",39,"2",1,NA,1,0.482137
4,"8","3",40,"1",1,NA,1,0.402939
4,"8","3",41,"1",1,NA,1,0.518415
4,"8","3",42,"2",1,NA,1,0.589267
4,"8","3",43,"2",1,NA,1,0.472461
4,"8","3",44,"2",1,NA,1,0.473241
4,"8","3",48,"2",1,NA,1,0.609969
4,"8","3",50,"1",1,NA,1,0.655044
4,"8","3",51,"2",1,NA,1,0.560608
4,"8","3",52,"2",1,NA,1,0.621122
4,"8","3",53,"1",1,NA,1,0.463965
4,"8","3",54,"1",1,NA,1,0.553452
4,"8","3",56,"2",1,NA,1,0.684478
4,"8","3",57,"2",1,NA,1,0.604734
4,"8","3",58,"2",1,NA,1,0.520255
4,"8","3",59,"1",1,NA,1,0.439085
4,"8","3",60,"2",1,NA,1,0.608233
4,"8","3",62,"2",1,NA,1,0.515995
4,"8","3",64,"1",1,NA,1,0.575021
4,"8","3",65,"1",1,NA,1,0.579914
4,"8","3",66,"1",1,NA,1,0.54474
4,"8","3",67,"1",1,NA,0,0.462924
4,"8","3",69,"1",1,NA,1,0.458259
4,"8","3",70,"1",1,NA,1,0.507729
4,"8","3",72,"1",1,NA,0,0.425395
4,"8","4",4,"2",1,NA,1,0.687807
4,"8","4",5,"2",1,NA,1,0.55202
4,"8","4",6,"1",1,NA,1,0.485542
4,"8","4",8,"2",1,NA,1,0.613183
4,"8","4",9,"1",1,NA,1,0.583791
4,"8","4",12,"2",1,NA,1,0.724329
4,"8","4",13,"1",1,NA,1,0.627261
4,"8","4",15,"1",1,NA,1,0.536314
4,"8","4",16,"1",1,NA,1,0.646482
4,"8","4",17,"1",1,NA,1,0.536722
4,"8","4",19,"1",1,NA,1,0.495435
4,"8","4",20,"2",1,NA,1,0.7436
4,"8","4",21,"1",1,NA,1,0.677886
4,"8","4",22,"2",1,NA,1,0.582752
4,"8","4",25,"2",1,NA,1,0.629709
4,"8","4",28,"1",1,NA,1,0.557664
4,"8","4",29,"1",1,NA,1,0.611189
4,"8","4",30,"2",1,NA,1,0.582723
4,"8","4",31,"2",1,NA,1,0.715597
4,"8","4",32,"2",1,NA,1,0.595133
4,"8","4",33,"1",1,NA,1,0.591325
4,"8","4",35,"2",1,NA,1,0.636762
4,"8","4",37,"2",1,NA,1,0.630542
4,"8","4",38,"2",1,NA,1,0.577438
4,"8","4",39,"2",1,NA,1,0.438264
4,"8","4",40,"1",1,NA,1,0.5364
4,"8","4",41,"2",1,NA,1,0.494591
4,"8","4",43,"1",1,NA,1,0.59054
4,"8","4",44,"1",1,NA,1,0.49872
4,"8","4",45,"1",1,NA,1,0.514883
4,"8","4",47,"1",1,NA,1,0.732519
4,"8","4",48,"1",1,NA,1,0.755443
4,"8","4",50,"2",1,NA,1,0.582899
4,"8","4",53,"2",1,NA,1,0.511481
4,"8","4",55,"1",1,NA,1,0.533241
4,"8","4",56,"2",1,NA,1,0.556073
4,"8","4",57,"2",1,NA,1,0.673565
4,"8","4",59,"1",1,NA,1,0.467657
4,"8","4",60,"2",1,NA,1,0.436469
4,"8","4",61,"1",1,NA,1,0.598645
4,"8","4",62,"1",1,NA,1,0.810832
4,"8","4",63,"1",1,NA,1,0.550449
4,"8","4",67,"1",1,NA,1,0.565556
4,"8","4",68,"2",1,NA,1,0.619074
4,"8","4",69,"2",1,NA,1,0.541926
4,"8","4",70,"2",1,NA,1,0.780131
4,"8","4",74,"2",1,NA,1,0.589159
4,"9","1",4,"2",1,NA,1,0.552521
4,"9","1",9,"1",1,NA,1,0.627958
4,"9","1",10,"2",1,NA,1,0.606839
4,"9","1",11,"2",1,NA,0,0.554361
4,"9","1",12,"1",1,NA,1,0.639846
4,"9","1",13,"1",1,NA,1,0.922057
4,"9","1",15,"1",1,NA,1,0.682913
4,"9","1",16,"1",1,NA,1,0.667761
4,"9","1",18,"1",1,NA,1,0.58431
4,"9","1",19,"1",1,NA,1,0.54847
4,"9","1",20,"1",1,NA,1,0.506636
4,"9","1",21,"2",1,NA,1,0.498089
4,"9","1",22,"2",1,NA,1,0.714272
4,"9","1",23,"2",1,NA,1,0.528859
4,"9","1",26,"2",1,NA,1,0.601481
4,"9","1",27,"2",1,NA,1,0.556947
4,"9","1",28,"1",1,NA,0,0.970481
4,"9","1",29,"2",1,NA,1,0.791486
4,"9","1",30,"1",1,NA,1,0.547699
4,"9","1",31,"1",1,NA,1,0.769848
4,"9","1",34,"2",1,NA,1,0.62869
4,"9","1",35,"2",1,NA,1,0.583581
4,"9","1",36,"2",1,NA,1,0.836399
4,"9","1",38,"2",1,NA,0,0.563514
4,"9","1",39,"1",1,NA,1,0.640039
4,"9","1",40,"1",1,NA,1,0.538236
4,"9","1",41,"2",1,NA,1,0.504381
4,"9","1",42,"2",1,NA,1,0.599824
4,"9","1",43,"1",1,NA,1,0.676044
4,"9","1",44,"1",1,NA,1,0.532891
4,"9","1",46,"2",1,NA,1,0.89789
4,"9","1",48,"2",1,NA,1,0.481951
4,"9","1",49,"1",1,NA,1,0.882748
4,"9","1",52,"2",1,NA,1,0.678944
4,"9","1",54,"1",1,NA,1,0.550065
4,"9","1",57,"1",1,NA,1,0.589669
4,"9","1",59,"2",1,NA,1,0.598284
4,"9","1",60,"1",1,NA,1,0.850406
4,"9","1",61,"2",1,NA,0,0.628036
4,"9","1",62,"1",1,NA,1,0.75889
4,"9","1",63,"2",1,NA,1,0.420413
4,"9","1",65,"2",1,NA,1,0.718451
4,"9","1",68,"1",1,NA,1,0.695158
4,"9","1",69,"1",1,NA,1,0.655368
4,"9","1",71,"1",1,NA,1,0.778121
4,"9","1",72,"2",1,NA,1,0.58301
4,"9","1",73,"2",1,NA,1,0.667842
4,"9","2",4,"2",1,NA,1,0.656917
4,"9","2",5,"1",1,NA,1,0.570423
4,"9","2",6,"2",1,NA,1,0.559234
4,"9","2",8,"1",1,NA,1,0.511553
4,"9","2",11,"1",1,NA,1,0.579808
4,"9","2",12,"1",1,NA,1,0.760579
4,"9","2",14,"2",1,NA,1,0.568331
4,"9","2",15,"1",1,NA,1,0.5812
4,"9","2",17,"1",1,NA,1,0.589529
4,"9","2",18,"1",1,NA,1,0.497689
4,"9","2",19,"2",1,NA,1,0.681853
4,"9","2",20,"2",1,NA,1,0.745747
4,"9","2",22,"1",1,NA,1,0.533468
4,"9","2",23,"1",1,NA,1,0.68432
4,"9","2",24,"1",1,NA,1,0.548463
4,"9","2",27,"2",1,NA,1,0.561393
4,"9","2",28,"1",1,NA,1,0.574854
4,"9","2",29,"2",1,NA,1,0.683726
4,"9","2",31,"1",1,NA,1,0.727423
4,"9","2",33,"1",1,NA,1,0.612508
4,"9","2",34,"1",1,NA,1,0.600051
4,"9","2",35,"2",1,NA,1,0.708225
4,"9","2",36,"2",1,NA,1,0.93079
4,"9","2",37,"1",1,NA,1,1.153767
4,"9","2",38,"1",1,NA,1,0.647518
4,"9","2",39,"1",1,NA,1,0.705695
4,"9","2",40,"2",1,NA,1,0.793254
4,"9","2",41,"1",1,NA,1,0.517533
4,"9","2",42,"1",1,NA,1,0.396316
4,"9","2",44,"2",1,NA,1,0.626246
4,"9","2",48,"2",1,NA,1,0.638463
4,"9","2",51,"2",1,NA,1,0.660171
4,"9","2",52,"1",1,NA,1,0.629708
4,"9","2",56,"1",1,NA,1,0.643937
4,"9","2",57,"2",1,NA,1,0.510111
4,"9","2",58,"2",1,NA,0,0.597593
4,"9","2",59,"2",1,NA,1,0.824834
4,"9","2",61,"2",1,NA,1,0.949993
4,"9","2",62,"1",1,NA,1,0.844344
4,"9","2",63,"2",1,NA,1,0.734627
4,"9","2",64,"2",1,NA,1,0.724798
4,"9","2",67,"2",1,NA,1,1.143211
4,"9","2",68,"1",1,NA,1,0.589587
4,"9","2",69,"2",1,NA,1,0.609743
4,"9","2",71,"1",1,NA,1,0.592796
4,"9","2",73,"2",1,NA,1,0.565202
4,"9","2",74,"2",1,NA,1,0.866677
4,"9","3",4,"1",1,NA,1,0.801226
4,"9","3",5,"2",1,NA,1,0.604798
4,"9","3",7,"2",1,NA,1,0.626843
4,"9","3",8,"2",1,NA,1,0.717741
4,"9","3",9,"2",1,NA,1,0.740596
4,"9","3",10,"1",1,NA,1,0.658849
4,"9","3",11,"1",1,NA,1,0.956402
4,"9","3",12,"2",1,NA,1,0.68201
4,"9","3",13,"1",1,NA,1,0.498894
4,"9","3",16,"2",1,NA,1,0.795791
4,"9","3",19,"2",1,NA,1,0.98852
4,"9","3",20,"1",1,NA,1,0.912854
4,"9","3",21,"2",1,NA,1,0.728475
4,"9","3",22,"1",1,NA,1,0.734404
4,"9","3",24,"1",1,NA,1,0.667528
4,"9","3",28,"2",1,NA,1,0.632992
4,"9","3",30,"2",1,NA,1,0.48652
4,"9","3",31,"2",1,NA,1,0.646676
4,"9","3",32,"1",1,NA,1,0.592861
4,"9","3",35,"1",1,NA,1,0.673451
4,"9","3",36,"2",1,NA,1,0.610327
4,"9","3",38,"1",1,NA,1,0.792992
4,"9","3",39,"2",1,NA,1,0.709246
4,"9","3",40,"1",1,NA,1,0.61283
4,"9","3",41,"1",1,NA,1,0.63233
4,"9","3",42,"2",1,NA,1,0.7712
4,"9","3",43,"2",1,NA,1,0.776089
4,"9","3",44,"2",1,NA,1,0.525
4,"9","3",48,"2",1,NA,1,0.612109
4,"9","3",50,"1",1,NA,1,0.547919
4,"9","3",51,"2",1,NA,1,0.43404
4,"9","3",52,"2",1,NA,0,0.356147
4,"9","3",53,"1",1,NA,1,0.569604
4,"9","3",54,"1",1,NA,1,0.718422
4,"9","3",56,"2",1,NA,1,0.690591
4,"9","3",57,"2",1,NA,1,0.898806
4,"9","3",58,"2",1,NA,1,0.731115
4,"9","3",59,"1",1,NA,1,0.665962
4,"9","3",60,"2",1,NA,1,0.603548
4,"9","3",62,"2",1,NA,1,0.588861
4,"9","3",64,"1",1,NA,1,0.623893
4,"9","3",65,"1",1,NA,1,0.530742
4,"9","3",66,"1",1,NA,1,0.641573
4,"9","3",67,"1",1,NA,1,0.603792
4,"9","3",69,"1",1,NA,1,0.496804
4,"9","3",70,"1",1,NA,1,0.576947
4,"9","3",72,"1",1,NA,1,0.527021
4,"9","4",4,"2",1,NA,1,0.748491
4,"9","4",5,"2",1,NA,1,0.754686
4,"9","4",6,"1",1,NA,1,0.576276
4,"9","4",8,"2",1,NA,1,0.527942
4,"9","4",9,"1",1,NA,1,0.558831
4,"9","4",12,"2",1,NA,1,0.825761
4,"9","4",13,"1",1,NA,1,0.59665
4,"9","4",15,"1",1,NA,1,0.669071
4,"9","4",16,"1",1,NA,1,0.94997
4,"9","4",17,"1",1,NA,1,0.548335
4,"9","4",19,"1",1,NA,1,0.630293
4,"9","4",20,"2",1,NA,1,0.681142
4,"9","4",21,"1",1,NA,1,0.722015
4,"9","4",22,"2",1,NA,1,0.816976
4,"9","4",25,"2",1,NA,1,0.556197
4,"9","4",28,"1",1,NA,1,0.701709
4,"9","4",29,"1",1,NA,1,0.733324
4,"9","4",30,"2",1,NA,1,0.636264
4,"9","4",31,"2",1,NA,1,0.598369
4,"9","4",32,"2",1,NA,1,1.002586
4,"9","4",33,"1",1,NA,1,0.502261
4,"9","4",35,"2",1,NA,1,0.590826
4,"9","4",37,"2",1,NA,1,0.7365
4,"9","4",38,"2",1,NA,1,0.606716
4,"9","4",39,"2",1,NA,1,0.482239
4,"9","4",40,"1",1,NA,1,0.643126
4,"9","4",41,"2",1,NA,1,0.557233
4,"9","4",43,"1",1,NA,1,0.627904
4,"9","4",44,"1",1,NA,1,0.550812
4,"9","4",45,"1",1,NA,1,0.508299
4,"9","4",47,"1",1,NA,1,0.609952
4,"9","4",48,"1",1,NA,1,0.645449
4,"9","4",50,"2",1,NA,1,0.705879
4,"9","4",53,"2",1,NA,1,0.550801
4,"9","4",55,"1",1,NA,1,0.597864
4,"9","4",56,"2",1,NA,1,0.618018
4,"9","4",57,"2",1,NA,1,0.604887
4,"9","4",59,"1",1,NA,1,0.592599
4,"9","4",60,"2",1,NA,1,0.531835
4,"9","4",61,"1",1,NA,1,0.658582
4,"9","4",62,"1",1,NA,1,0.580152
4,"9","4",63,"1",1,NA,1,0.841024
4,"9","4",67,"1",1,NA,1,0.623159
4,"9","4",68,"2",1,NA,1,0.737056
4,"9","4",69,"2",1,NA,1,0.59124
4,"9","4",70,"2",1,NA,1,1.011425
4,"9","4",74,"2",1,NA,1,0.664236
4,"10","1",4,"2",1,NA,1,0.445432
4,"10","1",9,"1",1,NA,1,0.488055
4,"10","1",10,"2",1,NA,1,0.51218
4,"10","1",11,"2",1,NA,1,0.575676
4,"10","1",12,"1",1,NA,1,0.468498
4,"10","1",13,"1",1,NA,1,0.524268
4,"10","1",15,"1",1,NA,1,0.497912
4,"10","1",16,"1",1,NA,1,0.378033
4,"10","1",18,"1",1,NA,1,0.476265
4,"10","1",19,"1",1,NA,1,0.501025
4,"10","1",20,"1",1,NA,1,0.500499
4,"10","1",21,"2",1,NA,1,0.666996
4,"10","1",22,"2",1,NA,1,0.563862
4,"10","1",23,"2",1,NA,1,1.137379
4,"10","1",26,"2",1,NA,0,0.459953
4,"10","1",27,"2",1,NA,1,0.581402
4,"10","1",28,"1",1,NA,1,0.450306
4,"10","1",29,"2",1,NA,1,0.563421
4,"10","1",30,"1",1,NA,1,0.472816
4,"10","1",31,"1",1,NA,1,0.585595
4,"10","1",34,"2",1,NA,1,0.452595
4,"10","1",35,"2",1,NA,1,0.534085
4,"10","1",36,"2",1,NA,1,0.516213
4,"10","1",38,"2",1,NA,1,0.483456
4,"10","1",39,"1",1,NA,1,0.540263
4,"10","1",40,"1",1,NA,1,0.474411
4,"10","1",41,"2",1,NA,1,0.491165
4,"10","1",42,"2",1,NA,1,0.499281
4,"10","1",43,"1",1,NA,1,0.443459
4,"10","1",44,"1",1,NA,1,0.453566
4,"10","1",46,"2",1,NA,1,0.37576
4,"10","1",48,"2",1,NA,1,0.390975
4,"10","1",49,"1",1,NA,1,0.435053
4,"10","1",52,"2",1,NA,0,0.580285
4,"10","1",54,"1",1,NA,1,0.444667
4,"10","1",57,"1",1,NA,1,0.387975
4,"10","1",59,"2",1,NA,1,0.813639
4,"10","1",60,"1",1,NA,1,0.449127
4,"10","1",61,"2",1,NA,1,0.507259
4,"10","1",62,"1",1,NA,1,0.5147
4,"10","1",63,"2",1,NA,1,0.458182
4,"10","1",65,"2",1,NA,1,0.45142
4,"10","1",68,"1",1,NA,1,0.501879
4,"10","1",69,"1",1,NA,1,0.789341
4,"10","1",71,"1",1,NA,1,0.483732
4,"10","1",72,"2",1,NA,1,0.506801
4,"10","1",73,"2",1,NA,1,0.498245
4,"10","2",4,"2",1,NA,1,0.576527
4,"10","2",5,"1",1,NA,1,0.477336
4,"10","2",6,"2",1,NA,1,0.437109
4,"10","2",8,"1",1,NA,1,0.472674
4,"10","2",11,"1",1,NA,1,0.433792
4,"10","2",12,"1",1,NA,1,0.419871
4,"10","2",14,"2",1,NA,1,0.88319
4,"10","2",15,"1",1,NA,1,0.444162
4,"10","2",17,"1",1,NA,1,0.542978
4,"10","2",18,"1",1,NA,1,0.877167
4,"10","2",19,"2",1,NA,1,0.686106
4,"10","2",20,"2",1,NA,1,0.534314
4,"10","2",22,"1",1,NA,1,0.428526
4,"10","2",23,"1",1,NA,1,0.470333
4,"10","2",24,"1",1,NA,1,0.423103
4,"10","2",27,"2",1,NA,1,0.706831
4,"10","2",28,"1",1,NA,1,0.49037
4,"10","2",29,"2",1,NA,1,0.426493
4,"10","2",31,"1",1,NA,1,0.4451
4,"10","2",33,"1",1,NA,1,0.527287
4,"10","2",34,"1",1,NA,1,0.430076
4,"10","2",35,"2",1,NA,1,0.536949
4,"10","2",36,"2",1,NA,1,0.807026
4,"10","2",37,"1",1,NA,1,0.4746
4,"10","2",38,"1",1,NA,1,0.419364
4,"10","2",39,"1",1,NA,1,0.390139
4,"10","2",40,"2",1,NA,1,0.545206
4,"10","2",41,"1",1,NA,1,0.375391
4,"10","2",42,"1",1,NA,1,0.452127
4,"10","2",44,"2",1,NA,1,0.529658
4,"10","2",48,"2",1,NA,1,0.463555
4,"10","2",51,"2",1,NA,1,0.487589
4,"10","2",52,"1",1,NA,0,0.279723
4,"10","2",56,"1",1,NA,1,0.484172
4,"10","2",57,"2",1,NA,1,0.540206
4,"10","2",58,"2",1,NA,1,0.473392
4,"10","2",59,"2",1,NA,1,0.378192
4,"10","2",61,"2",1,NA,1,0.523029
4,"10","2",62,"1",1,NA,1,0.40982
4,"10","2",63,"2",1,NA,1,0.42921
4,"10","2",64,"2",1,NA,1,0.520006
4,"10","2",67,"2",1,NA,1,0.432771
4,"10","2",68,"1",1,NA,1,0.459471
4,"10","2",69,"2",1,NA,1,0.476966
4,"10","2",71,"1",1,NA,1,0.414519
4,"10","2",73,"2",1,NA,1,0.530739
4,"10","2",74,"2",1,NA,1,0.593547
4,"10","3",4,"1",1,NA,1,0.397147
4,"10","3",5,"2",1,NA,1,0.433239
4,"10","3",7,"2",1,NA,1,0.454793
4,"10","3",8,"2",1,NA,1,0.392241
4,"10","3",9,"2",1,NA,1,0.475302
4,"10","3",10,"1",1,NA,1,0.460103
4,"10","3",11,"1",1,NA,1,0.429528
4,"10","3",12,"2",1,NA,1,0.416321
4,"10","3",13,"1",1,NA,1,0.427702
4,"10","3",16,"2",1,NA,1,0.417392
4,"10","3",19,"2",1,NA,0,0.602275
4,"10","3",20,"1",1,NA,1,0.509761
4,"10","3",21,"2",1,NA,1,0.469227
4,"10","3",22,"1",1,NA,1,0.462031
4,"10","3",24,"1",1,NA,1,0.458917
4,"10","3",28,"2",1,NA,0,0.449113
4,"10","3",30,"2",1,NA,1,0.610041
4,"10","3",31,"2",1,NA,1,0.565508
4,"10","3",32,"1",1,NA,1,0.490977
4,"10","3",35,"1",1,NA,1,0.46542
4,"10","3",36,"2",1,NA,0,0.689871
4,"10","3",38,"1",1,NA,1,0.420169
4,"10","3",39,"2",1,NA,1,0.534923
4,"10","3",40,"1",1,NA,1,0.357127
4,"10","3",41,"1",1,NA,1,0.434485
4,"10","3",42,"2",1,NA,1,0.484608
4,"10","3",43,"2",1,NA,1,0.404748
4,"10","3",44,"2",1,NA,1,0.519146
4,"10","3",48,"2",1,NA,1,0.506391
4,"10","3",50,"1",1,NA,1,0.46734
4,"10","3",51,"2",1,NA,0,0.48411
4,"10","3",52,"2",1,NA,1,0.508232
4,"10","3",53,"1",1,NA,1,0.498711
4,"10","3",54,"1",1,NA,1,0.506855
4,"10","3",56,"2",1,NA,1,0.442462
4,"10","3",57,"2",1,NA,1,0.420558
4,"10","3",58,"2",1,NA,1,0.495316
4,"10","3",59,"1",1,NA,1,0.783456
4,"10","3",60,"2",1,NA,1,0.684367
4,"10","3",62,"2",1,NA,1,0.53363
4,"10","3",64,"1",1,NA,1,0.659271
4,"10","3",65,"1",1,NA,1,0.532797
4,"10","3",66,"1",1,NA,1,0.475607
4,"10","3",67,"1",1,NA,1,0.556412
4,"10","3",69,"1",1,NA,1,0.451689
4,"10","3",70,"1",1,NA,1,0.461196
4,"10","3",72,"1",1,NA,1,0.418023
4,"10","4",4,"2",1,NA,1,0.527806
4,"10","4",5,"2",1,NA,1,0.470609
4,"10","4",6,"1",1,NA,1,0.487421
4,"10","4",8,"2",1,NA,1,0.432352
4,"10","4",9,"1",1,NA,1,0.58718
4,"10","4",12,"2",1,NA,1,0.573218
4,"10","4",13,"1",1,NA,1,0.610044
4,"10","4",15,"1",1,NA,1,0.460494
4,"10","4",16,"1",1,NA,1,0.493841
4,"10","4",17,"1",1,NA,1,0.461906
4,"10","4",19,"1",1,NA,1,0.434124
4,"10","4",20,"2",1,NA,1,0.556255
4,"10","4",21,"1",1,NA,1,0.424757
4,"10","4",22,"2",1,NA,1,0.707512
4,"10","4",25,"2",1,NA,1,0.598687
4,"10","4",28,"1",1,NA,1,0.593043
4,"10","4",29,"1",1,NA,1,0.693133
4,"10","4",30,"2",1,NA,1,0.533317
4,"10","4",31,"2",1,NA,1,0.612161
4,"10","4",32,"2",1,NA,1,0.407642
4,"10","4",33,"1",1,NA,1,0.547046
4,"10","4",35,"2",1,NA,1,0.579334
4,"10","4",37,"2",1,NA,1,0.478662
4,"10","4",38,"2",1,NA,1,0.407401
4,"10","4",39,"2",1,NA,1,0.546899
4,"10","4",40,"1",1,NA,1,0.401018
4,"10","4",41,"2",1,NA,1,0.516444
4,"10","4",43,"1",1,NA,1,0.403971
4,"10","4",44,"1",1,NA,1,0.439411
4,"10","4",45,"1",1,NA,1,0.425594
4,"10","4",47,"1",1,NA,1,0.479418
4,"10","4",48,"1",1,NA,1,0.4242
4,"10","4",50,"2",1,NA,0,0.532399
4,"10","4",53,"2",1,NA,1,0.511592
4,"10","4",55,"1",1,NA,1,0.4868
4,"10","4",56,"2",1,NA,1,0.510911
4,"10","4",57,"2",1,NA,1,0.542421
4,"10","4",59,"1",1,NA,1,0.452649
4,"10","4",60,"2",1,NA,1,0.446119
4,"10","4",61,"1",1,NA,1,0.496202
4,"10","4",62,"1",1,NA,1,0.440341
4,"10","4",63,"1",1,NA,1,0.474456
4,"10","4",67,"1",1,NA,1,0.539961
4,"10","4",68,"2",1,NA,1,0.554123
4,"10","4",69,"2",1,NA,1,0.535551
4,"10","4",70,"2",1,NA,1,0.453728
4,"10","4",74,"2",1,NA,1,0.487228
4,"11","1",4,"2",1,NA,1,0.487398
4,"11","1",9,"1",1,NA,1,0.463729
4,"11","1",10,"2",1,NA,1,0.425205
4,"11","1",11,"2",1,NA,1,0.491962
4,"11","1",12,"1",1,NA,1,0.484086
4,"11","1",13,"1",1,NA,1,0.604192
4,"11","1",15,"1",1,NA,1,0.481495
4,"11","1",16,"1",1,NA,1,0.610269
4,"11","1",18,"1",1,NA,1,0.431915
4,"11","1",19,"1",1,NA,1,0.490692
4,"11","1",20,"1",1,NA,1,0.514833
4,"11","1",21,"2",1,NA,1,0.4583
4,"11","1",22,"2",1,NA,1,0.491748
4,"11","1",23,"2",1,NA,1,0.427902
4,"11","1",26,"2",1,NA,1,0.43804
4,"11","1",27,"2",1,NA,1,0.480126
4,"11","1",28,"1",1,NA,1,0.392926
4,"11","1",29,"2",1,NA,1,0.533037
4,"11","1",30,"1",1,NA,1,0.467816
4,"11","1",31,"1",1,NA,1,0.660667
4,"11","1",34,"2",1,NA,1,0.516763
4,"11","1",35,"2",1,NA,1,0.412196
4,"11","1",36,"2",1,NA,1,0.503669
4,"11","1",38,"2",1,NA,1,0.422619
4,"11","1",39,"1",1,NA,1,0.497356
4,"11","1",40,"1",1,NA,1,0.577506
4,"11","1",41,"2",1,NA,1,0.597355
4,"11","1",42,"2",1,NA,1,0.465553
4,"11","1",43,"1",1,NA,1,0.491011
4,"11","1",44,"1",1,NA,1,0.499123
4,"11","1",46,"2",1,NA,1,0.50134
4,"11","1",48,"2",1,NA,1,0.412947
4,"11","1",49,"1",1,NA,1,0.49641
4,"11","1",52,"2",1,NA,1,0.430498
4,"11","1",54,"1",1,NA,1,0.452118
4,"11","1",57,"1",1,NA,1,0.503024
4,"11","1",59,"2",1,NA,1,0.476537
4,"11","1",60,"1",1,NA,1,0.381277
4,"11","1",61,"2",1,NA,1,0.442013
4,"11","1",62,"1",1,NA,1,0.46015
4,"11","1",63,"2",1,NA,1,0.453639
4,"11","1",65,"2",1,NA,1,0.531831
4,"11","1",68,"1",1,NA,1,0.457919
4,"11","1",69,"1",1,NA,1,0.507344
4,"11","1",71,"1",1,NA,1,0.512389
4,"11","1",72,"2",1,NA,1,0.535795
4,"11","1",73,"2",1,NA,1,0.453947
4,"11","2",4,"2",1,NA,1,0.880694
4,"11","2",5,"1",1,NA,1,0.481623
4,"11","2",6,"2",1,NA,1,0.602421
4,"11","2",8,"1",1,NA,1,0.503372
4,"11","2",11,"1",1,NA,1,0.443866
4,"11","2",12,"1",1,NA,1,0.494014
4,"11","2",14,"2",1,NA,1,0.679348
4,"11","2",15,"1",1,NA,1,0.528178
4,"11","2",17,"1",1,NA,1,0.519854
4,"11","2",18,"1",1,NA,1,0.462621
4,"11","2",19,"2",1,NA,1,0.448124
4,"11","2",20,"2",1,NA,1,0.442174
4,"11","2",22,"1",1,NA,1,0.418116
4,"11","2",23,"1",1,NA,1,0.676889
4,"11","2",24,"1",1,NA,1,0.541806
4,"11","2",27,"2",1,NA,1,0.447466
4,"11","2",28,"1",1,NA,1,0.45755
4,"11","2",29,"2",1,NA,1,0.698122
4,"11","2",31,"1",1,NA,1,0.412401
4,"11","2",33,"1",1,NA,1,0.393446
4,"11","2",34,"1",1,NA,1,0.509545
4,"11","2",35,"2",1,NA,1,0.564993
4,"11","2",36,"2",1,NA,1,0.378476
4,"11","2",37,"1",1,NA,1,0.51923
4,"11","2",38,"1",1,NA,1,0.501033
4,"11","2",39,"1",1,NA,1,0.41252
4,"11","2",40,"2",1,NA,1,0.583954
4,"11","2",41,"1",1,NA,1,0.404089
4,"11","2",42,"1",1,NA,1,0.359533
4,"11","2",44,"2",1,NA,1,0.535079
4,"11","2",48,"2",1,NA,1,0.50798
4,"11","2",51,"2",1,NA,1,0.592973
4,"11","2",52,"1",1,NA,1,0.781152
4,"11","2",56,"1",1,NA,1,0.517518
4,"11","2",57,"2",1,NA,1,0.532301
4,"11","2",58,"2",1,NA,1,0.675172
4,"11","2",59,"2",1,NA,1,0.499993
4,"11","2",61,"2",1,NA,1,0.484941
4,"11","2",62,"1",1,NA,1,0.653061
4,"11","2",63,"2",1,NA,1,0.542591
4,"11","2",64,"2",1,NA,1,0.507753
4,"11","2",67,"2",1,NA,1,0.511532
4,"11","2",68,"1",1,NA,1,0.510979
4,"11","2",69,"2",1,NA,1,0.486486
4,"11","2",71,"1",1,NA,1,0.471399
4,"11","2",73,"2",1,NA,1,0.395287
4,"11","2",74,"2",1,NA,1,0.599395
4,"11","3",4,"1",1,NA,1,0.854808
4,"11","3",5,"2",1,NA,1,0.464371
4,"11","3",7,"2",1,NA,1,0.475299
4,"11","3",8,"2",1,NA,1,0.516123
4,"11","3",9,"2",1,NA,1,0.499545
4,"11","3",10,"1",1,NA,1,0.466711
4,"11","3",11,"1",1,NA,1,0.540164
4,"11","3",12,"2",1,NA,1,0.52231
4,"11","3",13,"1",1,NA,1,0.441118
4,"11","3",16,"2",1,NA,1,0.462229
4,"11","3",19,"2",1,NA,1,0.463587
4,"11","3",20,"1",1,NA,1,0.601085
4,"11","3",21,"2",1,NA,1,0.484536
4,"11","3",22,"1",1,NA,1,0.452708
4,"11","3",24,"1",1,NA,1,0.446348
4,"11","3",28,"2",1,NA,1,0.535103
4,"11","3",30,"2",1,NA,0,0.719426
4,"11","3",31,"2",1,NA,1,0.550268
4,"11","3",32,"1",1,NA,1,0.516427
4,"11","3",35,"1",1,NA,1,0.645602
4,"11","3",36,"2",1,NA,1,0.510752
4,"11","3",38,"1",1,NA,1,0.572392
4,"11","3",39,"2",1,NA,1,0.457242
4,"11","3",40,"1",1,NA,1,0.442696
4,"11","3",41,"1",1,NA,1,0.508777
4,"11","3",42,"2",1,NA,1,0.508273
4,"11","3",43,"2",1,NA,1,0.579747
4,"11","3",44,"2",1,NA,1,0.48059
4,"11","3",48,"2",1,NA,1,0.506146
4,"11","3",50,"1",1,NA,1,0.426428
4,"11","3",51,"2",1,NA,1,0.48519
4,"11","3",52,"2",1,NA,1,0.533351
4,"11","3",53,"1",1,NA,1,0.516158
4,"11","3",54,"1",1,NA,1,0.522617
4,"11","3",56,"2",1,NA,1,0.488996
4,"11","3",57,"2",1,NA,1,0.585192
4,"11","3",58,"2",1,NA,1,0.49331
4,"11","3",59,"1",1,NA,1,0.541403
4,"11","3",60,"2",1,NA,1,0.403587
4,"11","3",62,"2",1,NA,1,0.50754
4,"11","3",64,"1",1,NA,1,0.47249
4,"11","3",65,"1",1,NA,1,0.537263
4,"11","3",66,"1",1,NA,1,0.535436
4,"11","3",67,"1",1,NA,1,0.533587
4,"11","3",69,"1",1,NA,1,0.443207
4,"11","3",70,"1",1,NA,1,0.500332
4,"11","3",72,"1",1,NA,1,0.3579
4,"11","4",4,"2",1,NA,1,0.6369
4,"11","4",5,"2",1,NA,1,0.487084
4,"11","4",6,"1",1,NA,1,0.422285
4,"11","4",8,"2",1,NA,1,0.485123
4,"11","4",9,"1",1,NA,1,0.43724
4,"11","4",12,"2",1,NA,0,0.59622
4,"11","4",13,"1",1,NA,1,0.432385
4,"11","4",15,"1",1,NA,1,0.521727
4,"11","4",16,"1",1,NA,1,0.640469
4,"11","4",17,"1",1,NA,1,0.498635
4,"11","4",19,"1",1,NA,1,0.465687
4,"11","4",20,"2",1,NA,1,0.555122
4,"11","4",21,"1",1,NA,1,0.504631
4,"11","4",22,"2",1,NA,1,0.480074
4,"11","4",25,"2",1,NA,1,0.54614
4,"11","4",28,"1",1,NA,1,0.581187
4,"11","4",29,"1",1,NA,1,0.433987
4,"11","4",30,"2",1,NA,1,0.700151
4,"11","4",31,"2",1,NA,1,0.516319
4,"11","4",32,"2",1,NA,1,0.635816
4,"11","4",33,"1",1,NA,1,0.461008
4,"11","4",35,"2",1,NA,1,0.437257
4,"11","4",37,"2",1,NA,1,0.468848
4,"11","4",38,"2",1,NA,1,0.805683
4,"11","4",39,"2",1,NA,1,0.521259
4,"11","4",40,"1",1,NA,1,0.464073
4,"11","4",41,"2",1,NA,1,0.544547
4,"11","4",43,"1",1,NA,1,0.444155
4,"11","4",44,"1",1,NA,1,0.486279
4,"11","4",45,"1",1,NA,1,0.526443
4,"11","4",47,"1",1,NA,1,0.606664
4,"11","4",48,"1",1,NA,1,0.650203
4,"11","4",50,"2",1,NA,1,0.586184
4,"11","4",53,"2",1,NA,1,0.538107
4,"11","4",55,"1",1,NA,1,0.469743
4,"11","4",56,"2",1,NA,1,0.534545
4,"11","4",57,"2",1,NA,1,0.50071
4,"11","4",59,"1",1,NA,1,0.491275
4,"11","4",60,"2",1,NA,1,0.427476
4,"11","4",61,"1",1,NA,1,0.478193
4,"11","4",62,"1",1,NA,1,0.518966
4,"11","4",63,"1",1,NA,1,0.373801
4,"11","4",67,"1",1,NA,1,0.477917
4,"11","4",68,"2",1,NA,1,0.55073
4,"11","4",69,"2",1,NA,1,0.476196
4,"11","4",70,"2",1,NA,1,0.564989
4,"11","4",74,"2",1,NA,1,0.569571
4,"12","1",4,"2",1,NA,1,0.401267
4,"12","1",9,"1",1,NA,1,0.445859
4,"12","1",10,"2",1,NA,1,0.647977
4,"12","1",11,"2",1,NA,0,0.410142
4,"12","1",12,"1",1,NA,1,0.396574
4,"12","1",13,"1",1,NA,1,0.640745
4,"12","1",15,"1",1,NA,1,0.39099
4,"12","1",16,"1",1,NA,1,0.323053
4,"12","1",18,"1",1,NA,1,0.308023
4,"12","1",19,"1",1,NA,1,0.403471
4,"12","1",20,"1",1,NA,1,0.381903
4,"12","1",21,"2",1,NA,1,0.514598
4,"12","1",22,"2",1,NA,0,0.402126
4,"12","1",23,"2",1,NA,1,0.373522
4,"12","1",26,"2",1,NA,1,0.578598
4,"12","1",27,"2",1,NA,1,0.503377
4,"12","1",28,"1",1,NA,1,0.390826
4,"12","1",29,"2",1,NA,1,0.450967
4,"12","1",30,"1",1,NA,1,0.467413
4,"12","1",31,"1",1,NA,0,0.436232
4,"12","1",34,"2",1,NA,1,0.389267
4,"12","1",35,"2",1,NA,1,0.545359
4,"12","1",36,"2",1,NA,1,0.51954
4,"12","1",38,"2",1,NA,1,0.494215
4,"12","1",39,"1",1,NA,1,0.438321
4,"12","1",40,"1",1,NA,1,0.432413
4,"12","1",41,"2",1,NA,1,0.4912
4,"12","1",42,"2",1,NA,1,0.339296
4,"12","1",43,"1",1,NA,0,0.321385
4,"12","1",44,"1",1,NA,1,0.744161
4,"12","1",46,"2",1,NA,0,0.489798
4,"12","1",48,"2",1,NA,1,0.423764
4,"12","1",49,"1",1,NA,1,0.506566
4,"12","1",52,"2",1,NA,1,0.713035
4,"12","1",54,"1",1,NA,1,0.532022
4,"12","1",57,"1",1,NA,1,0.407301
4,"12","1",59,"2",1,NA,1,0.436882
4,"12","1",60,"1",1,NA,1,0.414971
4,"12","1",61,"2",1,NA,1,0.386433
4,"12","1",62,"1",1,NA,1,0.358531
4,"12","1",63,"2",1,NA,1,0.395982
4,"12","1",65,"2",1,NA,1,0.617157
4,"12","1",68,"1",1,NA,1,0.414326
4,"12","1",69,"1",1,NA,0,0.417733
4,"12","1",71,"1",1,NA,1,0.437254
4,"12","1",72,"2",1,NA,1,0.559395
4,"12","1",73,"2",1,NA,1,0.468904
4,"12","2",4,"2",1,NA,1,0.506878
4,"12","2",5,"1",1,NA,1,0.410324
4,"12","2",6,"2",1,NA,1,0.396739
4,"12","2",8,"1",1,NA,1,0.418988
4,"12","2",11,"1",1,NA,1,0.341354
4,"12","2",12,"1",1,NA,1,0.435429
4,"12","2",14,"2",1,NA,1,0.51234
4,"12","2",15,"1",1,NA,1,0.406777
4,"12","2",17,"1",1,NA,1,0.482384
4,"12","2",18,"1",1,NA,1,0.427158
4,"12","2",19,"2",1,NA,1,0.525951
4,"12","2",20,"2",1,NA,1,0.548771
4,"12","2",22,"1",1,NA,1,0.451044
4,"12","2",23,"1",1,NA,1,0.724515
4,"12","2",24,"1",1,NA,0,0.458406
4,"12","2",27,"2",1,NA,1,0.474139
4,"12","2",28,"1",1,NA,1,0.370945
4,"12","2",29,"2",1,NA,1,0.471717
4,"12","2",31,"1",1,NA,1,0.441919
4,"12","2",33,"1",1,NA,1,0.34324
4,"12","2",34,"1",1,NA,1,0.389283
4,"12","2",35,"2",1,NA,1,0.537393
4,"12","2",36,"2",1,NA,1,0.511589
4,"12","2",37,"1",1,NA,1,0.407039
4,"12","2",38,"1",1,NA,1,0.354499
4,"12","2",39,"1",1,NA,1,0.471919
4,"12","2",40,"2",1,NA,1,0.408671
4,"12","2",41,"1",1,NA,1,0.379106
4,"12","2",42,"1",1,NA,1,0.495915
4,"12","2",44,"2",1,NA,1,0.512813
4,"12","2",48,"2",1,NA,1,0.401274
4,"12","2",51,"2",1,NA,1,0.456614
4,"12","2",52,"1",1,NA,1,0.402025
4,"12","2",56,"1",1,NA,0,0.411203
4,"12","2",57,"2",1,NA,0,0.390594
4,"12","2",58,"2",1,NA,1,0.417794
4,"12","2",59,"2",1,NA,1,0.429478
4,"12","2",61,"2",1,NA,1,0.60813
4,"12","2",62,"1",1,NA,1,0.443627
4,"12","2",63,"2",1,NA,1,0.509719
4,"12","2",64,"2",1,NA,1,0.437272
4,"12","2",67,"2",1,NA,1,0.676225
4,"12","2",68,"1",1,NA,1,0.412081
4,"12","2",69,"2",1,NA,0,0.367514
4,"12","2",71,"1",1,NA,1,0.429748
4,"12","2",73,"2",1,NA,1,0.539329
4,"12","2",74,"2",1,NA,0,0.529448
4,"12","3",4,"1",1,NA,1,0.491182
4,"12","3",5,"2",1,NA,1,0.483306
4,"12","3",7,"2",1,NA,1,0.408851
4,"12","3",8,"2",1,NA,1,0.404291
4,"12","3",9,"2",1,NA,1,0.567757
4,"12","3",10,"1",1,NA,1,0.428585
4,"12","3",11,"1",1,NA,1,0.406326
4,"12","3",12,"2",1,NA,1,0.489762
4,"12","3",13,"1",1,NA,1,0.433946
4,"12","3",16,"2",1,NA,1,0.50501
4,"12","3",19,"2",1,NA,1,0.497728
4,"12","3",20,"1",1,NA,1,0.593885
4,"12","3",21,"2",1,NA,1,0.478047
4,"12","3",22,"1",1,NA,1,0.550825
4,"12","3",24,"1",1,NA,1,0.403818
4,"12","3",28,"2",1,NA,1,0.472516
4,"12","3",30,"2",1,NA,1,0.37081
4,"12","3",31,"2",1,NA,1,0.671543
4,"12","3",32,"1",1,NA,1,0.552417
4,"12","3",35,"1",1,NA,1,0.39618
4,"12","3",36,"2",1,NA,1,0.440339
4,"12","3",38,"1",1,NA,1,0.385546
4,"12","3",39,"2",1,NA,1,0.405615
4,"12","3",40,"1",1,NA,1,0.377034
4,"12","3",41,"1",1,NA,1,0.485856
4,"12","3",42,"2",1,NA,1,0.349948
4,"12","3",43,"2",1,NA,1,0.564023
4,"12","3",44,"2",1,NA,1,0.49756
4,"12","3",48,"2",1,NA,1,0.55709
4,"12","3",50,"1",1,NA,1,0.406591
4,"12","3",51,"2",1,NA,1,0.386033
4,"12","3",52,"2",1,NA,1,0.670184
4,"12","3",53,"1",1,NA,1,0.471051
4,"12","3",54,"1",1,NA,1,0.462787
4,"12","3",56,"2",1,NA,1,0.378354
4,"12","3",57,"2",1,NA,1,0.519142
4,"12","3",58,"2",1,NA,1,0.557937
4,"12","3",59,"1",1,NA,1,0.507462
4,"12","3",60,"2",1,NA,1,0.450945
4,"12","3",62,"2",1,NA,1,0.423128
4,"12","3",64,"1",1,NA,1,0.54314
4,"12","3",65,"1",1,NA,1,0.453221
4,"12","3",66,"1",1,NA,1,0.438663
4,"12","3",67,"1",1,NA,1,0.464775
4,"12","3",69,"1",1,NA,1,0.485679
4,"12","3",70,"1",1,NA,1,0.38185
4,"12","3",72,"1",1,NA,1,0.347682
4,"12","4",4,"2",1,NA,1,0.493854
4,"12","4",5,"2",1,NA,1,0.42099
4,"12","4",6,"1",1,NA,1,0.44775
4,"12","4",8,"2",1,NA,1,0.540707
4,"12","4",9,"1",1,NA,1,0.48285
4,"12","4",12,"2",1,NA,1,0.596596
4,"12","4",13,"1",1,NA,1,0.432776
4,"12","4",15,"1",1,NA,1,0.401361
4,"12","4",16,"1",1,NA,1,0.42875
4,"12","4",17,"1",1,NA,1,0.575578
4,"12","4",19,"1",1,NA,1,0.409828
4,"12","4",20,"2",1,NA,1,0.381212
4,"12","4",21,"1",1,NA,1,0.546042
4,"12","4",22,"2",1,NA,1,0.448121
4,"12","4",25,"2",1,NA,1,0.533541
4,"12","4",28,"1",1,NA,1,0.749271
4,"12","4",29,"1",1,NA,1,0.547492
4,"12","4",30,"2",1,NA,1,0.712688
4,"12","4",31,"2",1,NA,1,0.440171
4,"12","4",32,"2",1,NA,1,0.466294
4,"12","4",33,"1",1,NA,1,0.443791
4,"12","4",35,"2",1,NA,1,0.434655
4,"12","4",37,"2",1,NA,1,0.512192
4,"12","4",38,"2",1,NA,1,0.383669
4,"12","4",39,"2",1,NA,1,0.436396
4,"12","4",40,"1",1,NA,1,0.341504
4,"12","4",41,"2",1,NA,1,0.459585
4,"12","4",43,"1",1,NA,1,0.416486
4,"12","4",44,"1",1,NA,1,0.419913
4,"12","4",45,"1",1,NA,1,0.374702
4,"12","4",47,"1",1,NA,1,0.562867
4,"12","4",48,"1",1,NA,1,0.376356
4,"12","4",50,"2",1,NA,1,0.460207
4,"12","4",53,"2",1,NA,1,0.468705
4,"12","4",55,"1",1,NA,1,0.427023
4,"12","4",56,"2",1,NA,1,0.397744
4,"12","4",57,"2",1,NA,1,0.536874
4,"12","4",59,"1",1,NA,1,0.407814
4,"12","4",60,"2",1,NA,1,0.419269
4,"12","4",61,"1",1,NA,1,0.510013
4,"12","4",62,"1",1,NA,1,0.517474
4,"12","4",63,"1",1,NA,1,0.86835
4,"12","4",67,"1",1,NA,1,0.543316
4,"12","4",68,"2",1,NA,1,0.509488
4,"12","4",69,"2",1,NA,1,0.452908
4,"12","4",70,"2",1,NA,1,0.398343
4,"12","4",74,"2",1,NA,1,0.378113
4,"13","1",4,"2",1,NA,0,0.825463
4,"13","1",9,"1",1,NA,1,0.898549
4,"13","1",10,"2",1,NA,1,0.842908
4,"13","1",11,"2",1,NA,1,0.957246
4,"13","1",12,"1",1,NA,1,1.002959
4,"13","1",13,"1",1,NA,1,1.190708
4,"13","1",15,"1",1,NA,1,0.78939
4,"13","1",16,"1",1,NA,1,0.63271
4,"13","1",18,"1",1,NA,1,0.810534
4,"13","1",19,"1",1,NA,1,0.638166
4,"13","1",20,"1",1,NA,1,0.528387
4,"13","1",21,"2",1,NA,1,0.631294
4,"13","1",22,"2",1,NA,1,0.809323
4,"13","1",23,"2",1,NA,1,0.668805
4,"13","1",26,"2",1,NA,1,0.901782
4,"13","1",27,"2",1,NA,1,0.901464
4,"13","1",28,"1",1,NA,1,0.645177
4,"13","1",29,"2",1,NA,1,1.71948
4,"13","1",30,"1",1,NA,1,0.565762
4,"13","1",31,"1",1,NA,1,0.883326
4,"13","1",34,"2",1,NA,1,0.706778
4,"13","1",35,"2",1,NA,1,0.690345
4,"13","1",36,"2",1,NA,1,0.706617
4,"13","1",38,"2",1,NA,1,0.672844
4,"13","1",39,"1",1,NA,1,0.801754
4,"13","1",40,"1",1,NA,1,0.565458
4,"13","1",41,"2",1,NA,1,0.730953
4,"13","1",42,"2",1,NA,1,0.809898
4,"13","1",43,"1",1,NA,1,0.541531
4,"13","1",44,"1",1,NA,1,0.547714
4,"13","1",46,"2",1,NA,1,0.663157
4,"13","1",48,"2",1,NA,1,0.510246
4,"13","1",49,"1",1,NA,1,1.0058
4,"13","1",52,"2",1,NA,1,0.606616
4,"13","1",54,"1",1,NA,1,0.628783
4,"13","1",57,"1",1,NA,1,0.799424
4,"13","1",59,"2",1,NA,1,0.692073
4,"13","1",60,"1",1,NA,1,0.580403
4,"13","1",61,"2",1,NA,1,0.761225
4,"13","1",62,"1",1,NA,1,0.733853
4,"13","1",63,"2",1,NA,1,0.604156
4,"13","1",65,"2",1,NA,1,0.993318
4,"13","1",68,"1",1,NA,1,0.623524
4,"13","1",69,"1",1,NA,1,0.649491
4,"13","1",71,"1",1,NA,1,0.560704
4,"13","1",72,"2",1,NA,1,0.798252
4,"13","1",73,"2",1,NA,1,0.754576
4,"13","2",4,"2",1,NA,1,0.674212
4,"13","2",5,"1",1,NA,1,0.595132
4,"13","2",6,"2",1,NA,0,1.19037
4,"13","2",8,"1",1,NA,1,0.535662
4,"13","2",11,"1",1,NA,1,0.658568
4,"13","2",12,"1",1,NA,1,0.644129
4,"13","2",14,"2",1,NA,1,0.706311
4,"13","2",15,"1",1,NA,1,0.545914
4,"13","2",17,"1",1,NA,1,0.661655
4,"13","2",18,"1",1,NA,1,0.575302
4,"13","2",19,"2",1,NA,1,0.932153
4,"13","2",20,"2",1,NA,1,1.091185
4,"13","2",22,"1",1,NA,1,0.622126
4,"13","2",23,"1",1,NA,1,1.065065
4,"13","2",24,"1",1,NA,0,0.586781
4,"13","2",27,"2",1,NA,1,0.707524
4,"13","2",28,"1",1,NA,1,0.555081
4,"13","2",29,"2",1,NA,1,0.944656
4,"13","2",31,"1",1,NA,1,0.646922
4,"13","2",33,"1",1,NA,1,0.908811
4,"13","2",34,"1",1,NA,1,0.844558
4,"13","2",35,"2",1,NA,1,0.702833
4,"13","2",36,"2",1,NA,1,0.750436
4,"13","2",37,"1",1,NA,1,1.387097
4,"13","2",38,"1",1,NA,1,0.871625
4,"13","2",39,"1",1,NA,1,0.44862
4,"13","2",40,"2",1,NA,1,0.882801
4,"13","2",41,"1",1,NA,0,0.659793
4,"13","2",42,"1",1,NA,1,0.72533
4,"13","2",44,"2",1,NA,1,1.061947
4,"13","2",48,"2",1,NA,1,0.865262
4,"13","2",51,"2",1,NA,1,0.760731
4,"13","2",52,"1",1,NA,1,1.077368
4,"13","2",56,"1",1,NA,1,0.636647
4,"13","2",57,"2",1,NA,1,0.886911
4,"13","2",58,"2",1,NA,1,0.871233
4,"13","2",59,"2",1,NA,1,0.59225
4,"13","2",61,"2",1,NA,1,0.701041
4,"13","2",62,"1",1,NA,1,0.796639
4,"13","2",63,"2",1,NA,1,1.080971
4,"13","2",67,"2",1,NA,1,0.941084
4,"13","2",68,"1",1,NA,1,0.739442
4,"13","2",69,"2",1,NA,1,0.6497
4,"13","2",71,"1",1,NA,1,0.666895
4,"13","2",73,"2",1,NA,1,0.590238
4,"13","2",74,"2",1,NA,1,0.857465
4,"13","3",4,"1",1,NA,1,0.875573
4,"13","3",5,"2",1,NA,1,0.62056
4,"13","3",7,"2",1,NA,1,0.566965
4,"13","3",8,"2",1,NA,1,0.612563
4,"13","3",9,"2",1,NA,1,0.672095
4,"13","3",10,"1",1,NA,1,0.793026
4,"13","3",11,"1",1,NA,1,0.653303
4,"13","3",12,"2",1,NA,1,1.165904
4,"13","3",13,"1",1,NA,1,0.507679
4,"13","3",16,"2",1,NA,1,0.855091
4,"13","3",19,"2",1,NA,1,0.675937
4,"13","3",20,"1",1,NA,1,0.659866
4,"13","3",21,"2",1,NA,1,0.485433
4,"13","3",22,"1",1,NA,1,0.493609
4,"13","3",24,"1",1,NA,1,0.984138
4,"13","3",28,"2",1,NA,1,0.690971
4,"13","3",30,"2",1,NA,1,0.807479
4,"13","3",31,"2",1,NA,1,0.683117
4,"13","3",32,"1",1,NA,1,0.788041
4,"13","3",35,"1",1,NA,1,0.635381
4,"13","3",36,"2",1,NA,1,0.637564
4,"13","3",38,"1",1,NA,1,0.572688
4,"13","3",39,"2",1,NA,0,0.921568
4,"13","3",40,"1",1,NA,1,0.536564
4,"13","3",41,"1",1,NA,1,0.534792
4,"13","3",42,"2",1,NA,1,0.532974
4,"13","3",43,"2",1,NA,1,0.699824
4,"13","3",44,"2",1,NA,1,0.739078
4,"13","3",48,"2",1,NA,1,0.596231
4,"13","3",50,"1",1,NA,1,0.519983
4,"13","3",51,"2",1,NA,1,0.581928
4,"13","3",52,"2",1,NA,1,0.666742
4,"13","3",53,"1",1,NA,1,0.492278
4,"13","3",54,"1",1,NA,1,0.620489
4,"13","3",56,"2",1,NA,1,0.517762
4,"13","3",57,"2",1,NA,1,0.660674
4,"13","3",58,"2",1,NA,1,0.982223
4,"13","3",59,"1",1,NA,1,0.730329
4,"13","3",60,"2",1,NA,1,0.689168
4,"13","3",62,"2",1,NA,1,0.786379
4,"13","3",64,"1",1,NA,1,0.54901
4,"13","3",65,"1",1,NA,1,0.539223
4,"13","3",66,"1",1,NA,1,0.64144
4,"13","3",67,"1",1,NA,1,0.619656
4,"13","3",69,"1",1,NA,1,0.628486
4,"13","3",70,"1",1,NA,1,0.639423
4,"13","3",72,"1",1,NA,1,0.575354
4,"13","4",4,"2",1,NA,1,0.817851
4,"13","4",5,"2",1,NA,1,0.619877
4,"13","4",6,"1",1,NA,1,0.52672
4,"13","4",8,"2",1,NA,1,0.683126
4,"13","4",9,"1",1,NA,1,0.636065
4,"13","4",12,"2",1,NA,1,0.91942
4,"13","4",13,"1",1,NA,1,0.662419
4,"13","4",15,"1",1,NA,1,0.540527
4,"13","4",16,"1",1,NA,1,0.754744
4,"13","4",17,"1",1,NA,1,0.504352
4,"13","4",19,"1",1,NA,1,0.576797
4,"13","4",20,"2",1,NA,1,0.957678
4,"13","4",21,"1",1,NA,1,0.603382
4,"13","4",22,"2",1,NA,1,0.613936
4,"13","4",25,"2",1,NA,1,0.783399
4,"13","4",28,"1",1,NA,1,0.606118
4,"13","4",29,"1",1,NA,1,0.689675
4,"13","4",30,"2",1,NA,1,0.81694
4,"13","4",31,"2",1,NA,1,0.707932
4,"13","4",32,"2",1,NA,1,0.843548
4,"13","4",33,"1",1,NA,1,0.621842
4,"13","4",35,"2",1,NA,1,0.589713
4,"13","4",37,"2",1,NA,1,0.708476
4,"13","4",38,"2",1,NA,1,0.676082
4,"13","4",39,"2",1,NA,1,0.621031
4,"13","4",40,"1",1,NA,1,0.879933
4,"13","4",41,"2",1,NA,1,0.704934
4,"13","4",43,"1",1,NA,1,0.552869
4,"13","4",44,"1",1,NA,1,0.590401
4,"13","4",45,"1",1,NA,1,0.75365
4,"13","4",47,"1",1,NA,1,0.587489
4,"13","4",48,"1",1,NA,1,0.5917
4,"13","4",50,"2",1,NA,1,0.692083
4,"13","4",53,"2",1,NA,1,1.159869
4,"13","4",55,"1",1,NA,1,0.58403
4,"13","4",56,"2",1,NA,1,0.780271
4,"13","4",57,"2",1,NA,1,0.497218
4,"13","4",59,"1",1,NA,1,0.588966
4,"13","4",60,"2",1,NA,1,0.689205
4,"13","4",61,"1",1,NA,1,0.992552
4,"13","4",62,"1",1,NA,1,1.140918
4,"13","4",63,"1",1,NA,1,0.955308
4,"13","4",67,"1",1,NA,1,0.763224
4,"13","4",68,"2",1,NA,1,0.792826
4,"13","4",69,"2",1,NA,1,0.660192
4,"13","4",70,"2",1,NA,1,1.701723
4,"13","4",74,"2",1,NA,1,0.976508
4,"14","1",4,"2",1,NA,1,0.570441
4,"14","1",9,"1",1,NA,1,0.509157
4,"14","1",10,"2",1,NA,1,0.45967
4,"14","1",11,"2",1,NA,1,0.565088
4,"14","1",12,"1",1,NA,1,0.546589
4,"14","1",13,"1",1,NA,1,0.504754
4,"14","1",15,"1",1,NA,1,0.465695
4,"14","1",16,"1",1,NA,1,0.475127
4,"14","1",18,"1",1,NA,1,0.508477
4,"14","1",19,"1",1,NA,1,0.531876
4,"14","1",20,"1",1,NA,1,0.530679
4,"14","1",21,"2",1,NA,1,0.513513
4,"14","1",22,"2",1,NA,0,0.504991
4,"14","1",23,"2",1,NA,1,0.584483
4,"14","1",26,"2",1,NA,1,0.528315
4,"14","1",27,"2",1,NA,1,0.743127
4,"14","1",28,"1",1,NA,1,0.628364
4,"14","1",29,"2",1,NA,1,0.807181
4,"14","1",30,"1",1,NA,1,0.49078
4,"14","1",31,"1",1,NA,1,0.554937
4,"14","1",34,"2",1,NA,1,0.552721
4,"14","1",35,"2",1,NA,1,0.478215
4,"14","1",36,"2",1,NA,1,0.414033
4,"14","1",38,"2",1,NA,1,0.458199
4,"14","1",39,"1",1,NA,1,0.507682
4,"14","1",40,"1",1,NA,1,0.491169
4,"14","1",41,"2",1,NA,1,0.483275
4,"14","1",42,"2",1,NA,1,0.532069
4,"14","1",43,"1",1,NA,1,0.442873
4,"14","1",44,"1",1,NA,1,0.461009
4,"14","1",46,"2",1,NA,1,0.434319
4,"14","1",48,"2",1,NA,1,0.558579
4,"14","1",49,"1",1,NA,1,0.420034
4,"14","1",52,"2",1,NA,1,0.453833
4,"14","1",54,"1",1,NA,1,0.412355
4,"14","1",57,"1",1,NA,1,0.414127
4,"14","1",59,"2",1,NA,1,0.4398
4,"14","1",60,"1",1,NA,1,0.441815
4,"14","1",61,"2",1,NA,1,0.65196
4,"14","1",62,"1",1,NA,1,0.493466
4,"14","1",63,"2",1,NA,1,0.484734
4,"14","1",65,"2",1,NA,1,0.796219
4,"14","1",68,"1",1,NA,1,0.440913
4,"14","1",69,"1",1,NA,1,0.539018
4,"14","1",71,"1",1,NA,1,0.467077
4,"14","1",72,"2",1,NA,1,0.475853
4,"14","1",73,"2",1,NA,1,0.524695
4,"14","2",4,"2",1,NA,1,0.490412
4,"14","2",5,"1",1,NA,1,0.426519
4,"14","2",6,"2",1,NA,1,0.557328
4,"14","2",8,"1",1,NA,1,0.498948
4,"14","2",11,"1",1,NA,1,0.498014
4,"14","2",12,"1",1,NA,1,0.482186
4,"14","2",14,"2",1,NA,1,0.722809
4,"14","2",15,"1",1,NA,1,0.441672
4,"14","2",17,"1",1,NA,1,0.461279
4,"14","2",18,"1",1,NA,1,0.43071
4,"14","2",19,"2",1,NA,1,0.513472
4,"14","2",20,"2",1,NA,1,1.089006
4,"14","2",22,"1",1,NA,1,0.435101
4,"14","2",23,"1",1,NA,1,0.437213
4,"14","2",24,"1",1,NA,1,0.407325
4,"14","2",27,"2",1,NA,1,0.412361
4,"14","2",28,"1",1,NA,1,0.375808
4,"14","2",29,"2",1,NA,1,0.532568
4,"14","2",31,"1",1,NA,1,0.451834
4,"14","2",33,"1",1,NA,1,0.427451
4,"14","2",34,"1",1,NA,1,0.518199
4,"14","2",35,"2",1,NA,1,0.485053
4,"14","2",36,"2",1,NA,1,0.629193
4,"14","2",37,"1",1,NA,1,0.536036
4,"14","2",38,"1",1,NA,1,0.38234
4,"14","2",39,"1",1,NA,1,0.457942
4,"14","2",40,"2",1,NA,0,0.491427
4,"14","2",41,"1",1,NA,1,0.419534
4,"14","2",42,"1",1,NA,1,0.46232
4,"14","2",44,"2",1,NA,1,0.535899
4,"14","2",48,"2",1,NA,0,0.522155
4,"14","2",51,"2",1,NA,1,0.729294
4,"14","2",52,"1",1,NA,1,0.832182
4,"14","2",56,"1",1,NA,1,0.425221
4,"14","2",57,"2",1,NA,1,0.531979
4,"14","2",58,"2",1,NA,1,0.474802
4,"14","2",59,"2",1,NA,1,0.539558
4,"14","2",61,"2",1,NA,1,0.522535
4,"14","2",62,"1",1,NA,1,0.43332
4,"14","2",63,"2",1,NA,1,0.468101
4,"14","2",64,"2",1,NA,1,0.557006
4,"14","2",67,"2",1,NA,1,0.46568
4,"14","2",68,"1",1,NA,1,0.41912
4,"14","2",69,"2",1,NA,1,0.549943
4,"14","2",71,"1",1,NA,1,0.458882
4,"14","2",73,"2",1,NA,1,0.436142
4,"14","2",74,"2",1,NA,1,0.502277
4,"14","3",4,"1",1,NA,1,0.417065
4,"14","3",5,"2",1,NA,1,0.779853
4,"14","3",7,"2",1,NA,1,0.55191
4,"14","3",8,"2",1,NA,1,0.517412
4,"14","3",9,"2",1,NA,1,0.55626
4,"14","3",10,"1",1,NA,1,0.457723
4,"14","3",11,"1",1,NA,1,0.499224
4,"14","3",12,"2",1,NA,1,0.491343
4,"14","3",13,"1",1,NA,1,0.403445
4,"14","3",16,"2",1,NA,1,0.493517
4,"14","3",19,"2",1,NA,1,0.405942
4,"14","3",20,"1",1,NA,1,0.505365
4,"14","3",21,"2",1,NA,1,0.440815
4,"14","3",22,"1",1,NA,1,0.450933
4,"14","3",24,"1",1,NA,1,0.388872
4,"14","3",28,"2",1,NA,1,0.47929
4,"14","3",30,"2",1,NA,1,0.458262
4,"14","3",31,"2",1,NA,1,0.435637
4,"14","3",32,"1",1,NA,1,0.468994
4,"14","3",35,"1",1,NA,0,0.393144
4,"14","3",36,"2",1,NA,1,0.637279
4,"14","3",38,"1",1,NA,1,0.473539
4,"14","3",39,"2",1,NA,0,0.45037
4,"14","3",40,"1",1,NA,1,0.436501
4,"14","3",41,"1",1,NA,1,0.454567
4,"14","3",42,"2",1,NA,1,0.559139
4,"14","3",43,"2",1,NA,1,0.404542
4,"14","3",44,"2",1,NA,1,0.480038
4,"14","3",48,"2",1,NA,1,0.519281
4,"14","3",50,"1",1,NA,1,0.575868
4,"14","3",51,"2",1,NA,1,0.548726
4,"14","3",52,"2",1,NA,1,0.53087
4,"14","3",53,"1",1,NA,1,0.497741
4,"14","3",54,"1",1,NA,1,0.441855
4,"14","3",56,"2",1,NA,1,0.442087
4,"14","3",57,"2",1,NA,1,0.348214
4,"14","3",58,"2",1,NA,1,0.497398
4,"14","3",59,"1",1,NA,1,0.449438
4,"14","3",60,"2",1,NA,1,0.435603
4,"14","3",62,"2",1,NA,1,0.481121
4,"14","3",64,"1",1,NA,1,0.39668
4,"14","3",65,"1",1,NA,1,0.456766
4,"14","3",66,"1",1,NA,1,0.458272
4,"14","3",67,"1",1,NA,1,0.435726
4,"14","3",69,"1",1,NA,1,0.439589
4,"14","3",70,"1",1,NA,1,0.513736
4,"14","3",72,"1",1,NA,1,0.372716
4,"14","4",4,"2",1,NA,1,0.541864
4,"14","4",5,"2",1,NA,1,0.571998
4,"14","4",6,"1",1,NA,1,0.352788
4,"14","4",8,"2",1,NA,1,0.465025
4,"14","4",9,"1",1,NA,1,0.57049
4,"14","4",12,"2",1,NA,0,0.441217
4,"14","4",13,"1",1,NA,1,0.427306
4,"14","4",15,"1",1,NA,1,0.437597
4,"14","4",16,"1",1,NA,1,0.431735
4,"14","4",17,"1",1,NA,1,0.410467
4,"14","4",19,"1",1,NA,1,0.415027
4,"14","4",20,"2",1,NA,1,0.426461
4,"14","4",21,"1",1,NA,1,0.485247
4,"14","4",22,"2",1,NA,1,0.477412
4,"14","4",25,"2",1,NA,1,0.533152
4,"14","4",28,"1",1,NA,1,0.486518
4,"14","4",29,"1",1,NA,1,0.462649
4,"14","4",30,"2",1,NA,1,0.488112
4,"14","4",31,"2",1,NA,1,0.528274
4,"14","4",32,"2",1,NA,0,0.775081
4,"14","4",33,"1",1,NA,1,0.428031
4,"14","4",35,"2",1,NA,1,0.504184
4,"14","4",37,"2",1,NA,1,0.420826
4,"14","4",38,"2",1,NA,1,0.855689
4,"14","4",39,"2",1,NA,1,0.52125
4,"14","4",40,"1",1,NA,1,0.856064
4,"14","4",41,"2",1,NA,1,0.561671
4,"14","4",43,"1",1,NA,1,0.432634
4,"14","4",44,"1",1,NA,1,0.427422
4,"14","4",45,"1",1,NA,1,0.40516
4,"14","4",47,"1",1,NA,1,0.393424
4,"14","4",48,"1",1,NA,1,0.381499
4,"14","4",50,"2",1,NA,1,0.555071
4,"14","4",53,"2",1,NA,1,0.544101
4,"14","4",55,"1",1,NA,1,0.45142
4,"14","4",56,"2",1,NA,1,0.396846
4,"14","4",57,"2",1,NA,1,0.52114
4,"14","4",59,"1",1,NA,1,0.401244
4,"14","4",60,"2",1,NA,1,0.444672
4,"14","4",61,"1",1,NA,1,0.430779
4,"14","4",62,"1",1,NA,1,0.529546
4,"14","4",63,"1",1,NA,1,0.391392
4,"14","4",67,"1",1,NA,1,0.455205
4,"14","4",68,"2",1,NA,1,0.672642
4,"14","4",69,"2",1,NA,0,0.465548
4,"14","4",70,"2",1,NA,1,0.667002
4,"14","4",74,"2",1,NA,1,0.477959
4,"15","1",4,"2",1,NA,0,0.610274
4,"15","1",9,"1",1,NA,1,0.734937
4,"15","1",10,"2",1,NA,1,0.669098
4,"15","1",11,"2",1,NA,0,0.582004
4,"15","1",12,"1",1,NA,1,0.706843
4,"15","1",13,"1",1,NA,1,1.001488
4,"15","1",15,"1",1,NA,1,0.662572
4,"15","1",16,"1",1,NA,1,0.560101
4,"15","1",18,"1",1,NA,1,0.991096
4,"15","1",19,"1",1,NA,1,0.619399
4,"15","1",20,"1",1,NA,1,0.534245
4,"15","1",21,"2",1,NA,1,0.675418
4,"15","1",22,"2",1,NA,1,0.660303
4,"15","1",23,"2",1,NA,1,0.605791
4,"15","1",26,"2",1,NA,0,0.580391
4,"15","1",27,"2",1,NA,1,0.713183
4,"15","1",28,"1",1,NA,1,1.111822
4,"15","1",29,"2",1,NA,1,0.799441
4,"15","1",30,"1",1,NA,1,0.65177
4,"15","1",31,"1",1,NA,1,0.925261
4,"15","1",34,"2",1,NA,1,0.558477
4,"15","1",35,"2",1,NA,1,0.819969
4,"15","1",36,"2",1,NA,1,0.718974
4,"15","1",38,"2",1,NA,1,0.572442
4,"15","1",39,"1",1,NA,1,0.521233
4,"15","1",40,"1",1,NA,1,0.487998
4,"15","1",41,"2",1,NA,1,0.704073
4,"15","1",42,"2",1,NA,1,0.671688
4,"15","1",43,"1",1,NA,1,0.600543
4,"15","1",44,"1",1,NA,1,0.46804
4,"15","1",46,"2",1,NA,1,0.561308
4,"15","1",48,"2",1,NA,1,0.537621
4,"15","1",49,"1",1,NA,1,0.559773
4,"15","1",52,"2",1,NA,1,0.504907
4,"15","1",54,"1",1,NA,1,0.470948
4,"15","1",57,"1",1,NA,1,0.389897
4,"15","1",59,"2",1,NA,1,0.574852
4,"15","1",60,"1",1,NA,1,0.587654
4,"15","1",61,"2",1,NA,1,0.68791
4,"15","1",62,"1",1,NA,1,0.559024
4,"15","1",63,"2",1,NA,1,0.580525
4,"15","1",65,"2",1,NA,1,0.582859
4,"15","1",68,"1",1,NA,1,0.407233
4,"15","1",69,"1",1,NA,1,0.594663
4,"15","1",71,"1",1,NA,1,0.578668
4,"15","1",72,"2",1,NA,1,0.6635
4,"15","1",73,"2",1,NA,1,0.625027
4,"15","2",4,"2",1,NA,1,0.63167
4,"15","2",5,"1",1,NA,1,0.474487
4,"15","2",6,"2",1,NA,1,0.603254
4,"15","2",8,"1",1,NA,1,0.437695
4,"15","2",11,"1",1,NA,1,0.513094
4,"15","2",12,"1",1,NA,1,0.53659
4,"15","2",14,"2",1,NA,1,0.691573
4,"15","2",15,"1",1,NA,1,0.515758
4,"15","2",17,"1",1,NA,1,0.513038
4,"15","2",18,"1",1,NA,1,0.456516
4,"15","2",19,"2",1,NA,1,0.465963
4,"15","2",20,"2",1,NA,1,0.515414
4,"15","2",22,"1",1,NA,1,0.461015
4,"15","2",23,"1",1,NA,1,0.598522
4,"15","2",24,"1",1,NA,1,0.610666
4,"15","2",27,"2",1,NA,1,0.537394
4,"15","2",28,"1",1,NA,1,0.407556
4,"15","2",29,"2",1,NA,0,0.506988
4,"15","2",31,"1",1,NA,1,0.601239
4,"15","2",33,"1",1,NA,1,0.569598
4,"15","2",34,"1",1,NA,1,0.685423
4,"15","2",35,"2",1,NA,1,0.813675
4,"15","2",36,"2",1,NA,1,0.681229
4,"15","2",37,"1",1,NA,1,0.658098
4,"15","2",38,"1",1,NA,1,0.459595
4,"15","2",39,"1",1,NA,1,0.381102
4,"15","2",40,"2",1,NA,1,0.705841
4,"15","2",41,"1",1,NA,1,0.721375
4,"15","2",42,"1",1,NA,1,0.447199
4,"15","2",44,"2",1,NA,1,0.564198
4,"15","2",48,"2",1,NA,1,0.751593
4,"15","2",51,"2",1,NA,1,0.611111
4,"15","2",52,"1",1,NA,1,0.598611
4,"15","2",56,"1",1,NA,1,0.533454
4,"15","2",57,"2",1,NA,1,0.660275
4,"15","2",58,"2",1,NA,0,0.533778
4,"15","2",59,"2",1,NA,1,0.68305
4,"15","2",61,"2",1,NA,0,0.336038
4,"15","2",62,"1",1,NA,1,0.790047
4,"15","2",63,"2",1,NA,1,0.626295
4,"15","2",64,"2",1,NA,1,0.629215
4,"15","2",67,"2",1,NA,1,0.597928
4,"15","2",68,"1",1,NA,1,0.67408
4,"15","2",69,"2",1,NA,1,0.634924
4,"15","2",71,"1",1,NA,1,0.507294
4,"15","2",73,"2",1,NA,1,0.648918
4,"15","2",74,"2",1,NA,1,0.619104
4,"15","3",4,"1",1,NA,1,0.658887
4,"15","3",5,"2",1,NA,0,0.524539
4,"15","3",7,"2",1,NA,1,0.523762
4,"15","3",8,"2",1,NA,1,0.570579
4,"15","3",9,"2",1,NA,1,0.743429
4,"15","3",10,"1",1,NA,1,0.629657
4,"15","3",11,"1",1,NA,1,0.840484
4,"15","3",12,"2",1,NA,0,0.362752
4,"15","3",13,"1",1,NA,1,0.656174
4,"15","3",16,"2",1,NA,1,0.808492
4,"15","3",19,"2",1,NA,1,0.594298
4,"15","3",20,"1",1,NA,1,0.68647
4,"15","3",21,"2",1,NA,1,0.590664
4,"15","3",22,"1",1,NA,1,0.442855
4,"15","3",24,"1",1,NA,1,0.575442
4,"15","3",28,"2",1,NA,1,0.679493
4,"15","3",30,"2",1,NA,1,0.779881
4,"15","3",31,"2",1,NA,1,0.592772
4,"15","3",32,"1",1,NA,1,0.595943
4,"15","3",35,"1",1,NA,1,0.511121
4,"15","3",36,"2",1,NA,1,0.694587
4,"15","3",38,"1",1,NA,1,0.547605
4,"15","3",39,"2",1,NA,0,0.553773
4,"15","3",40,"1",1,NA,1,0.958279
4,"15","3",41,"1",1,NA,1,0.507908
4,"15","3",42,"2",1,NA,1,0.715362
4,"15","3",43,"2",1,NA,1,0.874898
4,"15","3",44,"2",1,NA,1,0.507875
4,"15","3",48,"2",1,NA,1,0.508281
4,"15","3",50,"1",1,NA,1,0.647339
4,"15","3",51,"2",1,NA,1,1.04955
4,"15","3",52,"2",1,NA,1,0.667846
4,"15","3",53,"1",1,NA,1,0.772727
4,"15","3",54,"1",1,NA,1,0.537612
4,"15","3",56,"2",1,NA,1,0.474922
4,"15","3",57,"2",1,NA,0,0.491748
4,"15","3",58,"2",1,NA,1,0.69193
4,"15","3",59,"1",1,NA,1,0.564082
4,"15","3",60,"2",1,NA,1,0.545575
4,"15","3",62,"2",1,NA,1,0.519928
4,"15","3",64,"1",1,NA,1,0.511257
4,"15","3",65,"1",1,NA,1,0.670732
4,"15","3",66,"1",1,NA,1,0.583624
4,"15","3",67,"1",1,NA,1,0.676433
4,"15","3",69,"1",1,NA,1,0.785482
4,"15","3",70,"1",1,NA,1,0.525698
4,"15","3",72,"1",1,NA,1,0.423658
4,"15","4",4,"2",1,NA,1,0.61678
4,"15","4",5,"2",1,NA,1,0.644277
4,"15","4",6,"1",1,NA,1,0.518443
4,"15","4",8,"2",1,NA,1,0.500085
4,"15","4",9,"1",1,NA,1,0.516191
4,"15","4",12,"2",1,NA,1,0.664976
4,"15","4",13,"1",1,NA,1,0.594477
4,"15","4",15,"1",1,NA,1,0.475455
4,"15","4",16,"1",1,NA,0,0.468229
4,"15","4",17,"1",1,NA,1,0.533053
4,"15","4",19,"1",1,NA,1,0.468066
4,"15","4",20,"2",1,NA,1,0.692875
4,"15","4",21,"1",1,NA,1,0.644075
4,"15","4",22,"2",1,NA,1,0.56624
4,"15","4",25,"2",1,NA,1,0.602019
4,"15","4",28,"1",1,NA,1,0.605876
4,"15","4",29,"1",1,NA,1,0.504377
4,"15","4",30,"2",1,NA,1,0.55186
4,"15","4",31,"2",1,NA,1,0.501299
4,"15","4",32,"2",1,NA,1,0.572824
4,"15","4",33,"1",1,NA,1,0.561638
4,"15","4",35,"2",1,NA,1,0.620034
4,"15","4",37,"2",1,NA,0,0.433378
4,"15","4",38,"2",1,NA,1,0.65216
4,"15","4",39,"2",1,NA,1,0.565681
4,"15","4",40,"1",1,NA,1,0.603176
4,"15","4",41,"2",1,NA,0,0.590683
4,"15","4",43,"1",1,NA,1,0.562296
4,"15","4",44,"1",1,NA,1,0.527848
4,"15","4",45,"1",1,NA,1,0.686645
4,"15","4",47,"1",1,NA,1,0.67967
4,"15","4",48,"1",1,NA,1,0.71258
4,"15","4",50,"2",1,NA,1,0.666935
4,"15","4",53,"2",1,NA,1,0.5592
4,"15","4",55,"1",1,NA,1,0.505563
4,"15","4",56,"2",1,NA,1,1.145037
4,"15","4",57,"2",1,NA,1,0.631423
4,"15","4",59,"1",1,NA,1,0.649076
4,"15","4",60,"2",1,NA,1,0.731272
4,"15","4",61,"1",1,NA,1,0.841163
4,"15","4",62,"1",1,NA,1,0.875434
4,"15","4",63,"1",1,NA,1,0.556366
4,"15","4",67,"1",1,NA,1,0.565042
4,"15","4",68,"2",1,NA,1,0.682527
4,"15","4",69,"2",1,NA,1,0.586399
4,"15","4",70,"2",1,NA,1,0.510561
4,"15","4",74,"2",1,NA,1,0.705861
4,"16","1",4,"2",1,NA,1,0.494527
4,"16","1",9,"1",1,NA,1,0.566523
4,"16","1",10,"2",1,NA,1,0.47508
4,"16","1",11,"2",1,NA,1,0.635819
4,"16","1",12,"1",1,NA,1,0.454021
4,"16","1",13,"1",1,NA,0,0.503457
4,"16","1",15,"1",1,NA,1,0.465077
4,"16","1",16,"1",1,NA,1,0.498506
4,"16","1",18,"1",1,NA,1,0.481588
4,"16","1",19,"1",1,NA,1,0.641337
4,"16","1",20,"1",1,NA,1,0.499536
4,"16","1",21,"2",1,NA,1,0.475667
4,"16","1",22,"2",1,NA,1,0.612454
4,"16","1",23,"2",1,NA,1,0.591954
4,"16","1",26,"2",1,NA,1,0.467922
4,"16","1",27,"2",1,NA,1,0.56468
4,"16","1",28,"1",1,NA,1,0.673208
4,"16","1",29,"2",1,NA,1,0.522052
4,"16","1",30,"1",1,NA,1,0.520893
4,"16","1",31,"1",1,NA,0,0.647675
4,"16","1",34,"2",1,NA,1,0.532225
4,"16","1",35,"2",1,NA,1,0.587009
4,"16","1",36,"2",1,NA,1,0.582208
4,"16","1",38,"2",1,NA,1,0.542552
4,"16","1",39,"1",1,NA,1,0.524691
4,"16","1",40,"1",1,NA,1,0.619521
4,"16","1",41,"2",1,NA,1,0.94238
4,"16","1",42,"2",1,NA,1,0.660687
4,"16","1",43,"1",1,NA,1,0.678218
4,"16","1",44,"1",1,NA,1,0.51807
4,"16","1",46,"2",1,NA,1,0.615834
4,"16","1",48,"2",1,NA,1,0.545501
4,"16","1",49,"1",1,NA,1,0.591656
4,"16","1",52,"2",1,NA,1,0.575845
4,"16","1",54,"1",1,NA,1,0.568218
4,"16","1",57,"1",1,NA,1,0.628082
4,"16","1",59,"2",1,NA,1,0.481803
4,"16","1",60,"1",1,NA,1,0.481581
4,"16","1",61,"2",1,NA,1,0.802375
4,"16","1",62,"1",1,NA,1,0.469939
4,"16","1",63,"2",1,NA,1,0.566748
4,"16","1",65,"2",1,NA,1,0.601084
4,"16","1",68,"1",1,NA,1,0.488671
4,"16","1",69,"1",1,NA,1,0.592787
4,"16","1",71,"1",1,NA,1,0.503827
4,"16","1",72,"2",1,NA,1,0.575279
4,"16","1",73,"2",1,NA,1,0.572106
4,"16","2",4,"2",1,NA,1,0.643511
4,"16","2",5,"1",1,NA,1,0.621618
4,"16","2",6,"2",1,NA,1,0.544485
4,"16","2",8,"1",1,NA,1,0.500836
4,"16","2",11,"1",1,NA,1,0.721556
4,"16","2",12,"1",1,NA,1,0.57648
4,"16","2",14,"2",1,NA,1,0.580108
4,"16","2",15,"1",1,NA,1,0.456923
4,"16","2",17,"1",1,NA,1,0.537193
4,"16","2",18,"1",1,NA,1,0.511367
4,"16","2",19,"2",1,NA,1,0.453815
4,"16","2",20,"2",1,NA,1,0.471306
4,"16","2",22,"1",1,NA,1,0.47351
4,"16","2",23,"1",1,NA,1,0.522312
4,"16","2",24,"1",1,NA,1,0.521145
4,"16","2",27,"2",1,NA,1,0.596276
4,"16","2",28,"1",1,NA,1,0.463396
4,"16","2",29,"2",1,NA,0,0.592869
4,"16","2",31,"1",1,NA,1,0.512628
4,"16","2",33,"1",1,NA,1,0.597015
4,"16","2",34,"1",1,NA,1,0.665207
4,"16","2",35,"2",1,NA,1,0.49874
4,"16","2",36,"2",1,NA,1,0.737887
4,"16","2",37,"1",1,NA,1,0.52016
4,"16","2",38,"1",1,NA,1,0.550929
4,"16","2",39,"1",1,NA,1,0.436409
4,"16","2",40,"2",1,NA,1,0.638539
4,"16","2",41,"1",1,NA,1,0.640704
4,"16","2",42,"1",1,NA,1,0.522917
4,"16","2",44,"2",1,NA,1,0.518211
4,"16","2",48,"2",1,NA,1,0.63016
4,"16","2",51,"2",1,NA,1,0.531233
4,"16","2",52,"1",1,NA,1,0.689054
4,"16","2",56,"1",1,NA,1,0.452486
4,"16","2",57,"2",1,NA,1,0.469918
4,"16","2",58,"2",1,NA,1,0.614764
4,"16","2",59,"2",1,NA,1,0.482217
4,"16","2",61,"2",1,NA,1,0.785549
4,"16","2",62,"1",1,NA,1,0.653777
4,"16","2",63,"2",1,NA,1,0.607292
4,"16","2",64,"2",1,NA,1,0.658828
4,"16","2",67,"2",1,NA,1,0.576617
4,"16","2",68,"1",1,NA,1,0.445448
4,"16","2",69,"2",1,NA,1,0.566553
4,"16","2",71,"1",1,NA,1,0.500257
4,"16","2",73,"2",1,NA,1,0.48457
4,"16","2",74,"2",1,NA,1,0.580732
4,"16","3",4,"1",1,NA,1,0.658603
4,"16","3",5,"2",1,NA,0,0.532158
4,"16","3",7,"2",1,NA,1,0.659875
4,"16","3",8,"2",1,NA,1,0.789388
4,"16","3",9,"2",1,NA,1,0.617631
4,"16","3",10,"1",1,NA,1,0.748466
4,"16","3",11,"1",1,NA,1,0.601725
4,"16","3",12,"2",1,NA,1,0.877223
4,"16","3",13,"1",1,NA,1,0.606135
4,"16","3",16,"2",1,NA,1,0.746163
4,"16","3",19,"2",1,NA,1,0.612458
4,"16","3",20,"1",1,NA,1,0.72798
4,"16","3",21,"2",1,NA,1,0.670873
4,"16","3",22,"1",1,NA,1,0.54373
4,"16","3",24,"1",1,NA,1,0.618744
4,"16","3",28,"2",1,NA,1,0.570491
4,"16","3",30,"2",1,NA,1,0.646125
4,"16","3",31,"2",1,NA,1,0.616299
4,"16","3",32,"1",1,NA,1,0.691833
4,"16","3",35,"1",1,NA,1,0.601414
4,"16","3",36,"2",1,NA,1,0.49291
4,"16","3",38,"1",1,NA,1,0.492528
4,"16","3",39,"2",1,NA,1,0.564648
4,"16","3",40,"1",1,NA,1,0.490142
4,"16","3",41,"1",1,NA,1,0.578297
4,"16","3",42,"2",1,NA,1,0.47112
4,"16","3",43,"2",1,NA,1,0.534859
4,"16","3",44,"2",1,NA,1,0.509035
4,"16","3",48,"2",1,NA,1,0.761091
4,"16","3",50,"1",1,NA,1,0.476136
4,"16","3",51,"2",1,NA,1,0.716908
4,"16","3",52,"2",1,NA,1,0.57142
4,"16","3",53,"1",1,NA,1,0.50429
4,"16","3",54,"1",1,NA,1,0.503748
4,"16","3",56,"2",1,NA,1,0.63681
4,"16","3",57,"2",1,NA,1,0.622992
4,"16","3",58,"2",1,NA,1,0.641827
4,"16","3",59,"1",1,NA,1,0.579024
4,"16","3",60,"2",1,NA,1,0.519861
4,"16","3",62,"2",1,NA,1,0.642867
4,"16","3",64,"1",1,NA,1,0.548625
4,"16","3",65,"1",1,NA,1,0.578762
4,"16","3",66,"1",1,NA,1,0.50358
4,"16","3",67,"1",1,NA,1,0.487078
4,"16","3",69,"1",1,NA,1,0.644378
4,"16","3",70,"1",1,NA,1,0.502553
4,"16","3",72,"1",1,NA,1,0.477489
4,"16","4",4,"2",1,NA,1,0.68576
4,"16","4",5,"2",1,NA,1,0.613936
4,"16","4",6,"1",1,NA,1,0.489461
4,"16","4",8,"2",1,NA,1,0.543074
4,"16","4",9,"1",1,NA,1,0.693251
4,"16","4",12,"2",1,NA,0,0.47075
4,"16","4",13,"1",1,NA,1,0.759531
4,"16","4",15,"1",1,NA,1,0.543308
4,"16","4",16,"1",1,NA,1,0.725491
4,"16","4",17,"1",1,NA,1,0.652377
4,"16","4",19,"1",1,NA,1,0.691113
4,"16","4",20,"2",1,NA,1,0.651346
4,"16","4",21,"1",1,NA,1,0.628874
4,"16","4",22,"2",1,NA,1,0.783785
4,"16","4",25,"2",1,NA,1,0.694771
4,"16","4",28,"1",1,NA,1,0.730652
4,"16","4",29,"1",1,NA,1,0.92152
4,"16","4",30,"2",1,NA,0,0.48051
4,"16","4",31,"2",1,NA,1,1.001418
4,"16","4",32,"2",1,NA,1,0.492957
4,"16","4",33,"1",1,NA,1,0.51709
4,"16","4",35,"2",1,NA,1,0.547042
4,"16","4",37,"2",1,NA,0,0.55605
4,"16","4",38,"2",1,NA,0,0.71353
4,"16","4",39,"2",1,NA,1,0.60912
4,"16","4",40,"1",1,NA,1,0.620629
4,"16","4",41,"2",1,NA,1,0.751474
4,"16","4",43,"1",1,NA,1,0.902216
4,"16","4",44,"1",1,NA,1,0.541874
4,"16","4",45,"1",1,NA,1,0.748007
4,"16","4",47,"1",1,NA,1,0.721097
4,"16","4",48,"1",1,NA,1,0.720014
4,"16","4",50,"2",1,NA,1,0.807508
4,"16","4",53,"2",1,NA,1,0.78902
4,"16","4",55,"1",1,NA,1,0.80487
4,"16","4",56,"2",1,NA,1,0.711528
4,"16","4",57,"2",1,NA,1,0.519009
4,"16","4",59,"1",1,NA,1,0.519343
4,"16","4",60,"2",1,NA,1,0.526151
4,"16","4",61,"1",1,NA,1,0.676989
4,"16","4",62,"1",1,NA,1,0.821857
4,"16","4",63,"1",1,NA,1,0.632777
4,"16","4",67,"1",1,NA,1,0.593128
4,"16","4",68,"2",1,NA,1,0.7173
4,"16","4",69,"2",1,NA,1,0.652198
4,"16","4",70,"2",1,NA,1,0.653784
4,"16","4",74,"2",1,NA,1,0.658321
4,"17","1",4,"2",1,NA,1,0.497564
