"publication_id","publication_code","study_id","group_description","between_id","observation_id","dataset_id","subject","block","trial","condition_id","congruency","accuracy","rt"
9,"vonbastiaan_2015_evidence",31,"University students (Swiss)",32,1598607,40,6532,1,4,63,2,0,0.831
9,"vonbastiaan_2015_evidence",31,"University students (Swiss)",32,1598609,40,6532,1,6,63,2,1,0.701
9,"vonbastiaan_2015_evidence",31,"University students (Swiss)",32,1598610,40,6532,1,7,63,2,1,0.838
9,"vonbastiaan_2015_evidence",31,"University students (Swiss)",32,1598611,40,6532,1,8,63,2,1,0.659
9,"vonbastiaan_2015_evidence",31,"University students (Swiss)",32,1598612,40,6532,1,9,63,1,1,0.739
9,"vonbastiaan_2015_evidence",31,"University students (Swiss)",32,1598613,40,6532,1,10,63,2,0,0.717
9,"vonbastiaan_2015_evidence",31,"University students (Swiss)",32,1598615,40,6532,1,12,63,1,1,0.67
9,"vonbastiaan_2015_evidence",31,"University students (Swiss)",32,1598616,40,6532,1,13,63,1,1,0.626
9,"vonbastiaan_2015_evidence",31,"University students (Swiss)",32,1598618,40,6532,1,15,63,2,1,0.591
9,"vonbastiaan_2015_evidence",31,"University students (Swiss)",32,1598619,40,6532,1,16,63,1,1,0.589
9,"vonbastiaan_2015_evidence",31,"University students (Swiss)",32,1598620,40,6532,1,17,63,2,1,0.835
9,"vonbastiaan_2015_evidence",31,"University students (Swiss)",32,1598621,40,6532,1,18,63,1,1,0.663
9,"vonbastiaan_2015_evidence",31,"University students (Swiss)",32,1598622,40,6532,1,19,63,2,1,0.911
9,"vonbastiaan_2015_evidence",31,"University students (Swiss)",32,1598623,40,6532,1,20,63,1,1,0.557
9,"vonbastiaan_2015_evidence",31,"University students (Swiss)",32,1598624,40,6532,1,21,63,1,1,0.843
9,"vonbastiaan_2015_evidence",31,"University students (Swiss)",32,1598626,40,6532,1,23,63,1,1,0.558
9,"vonbastiaan_2015_evidence",31,"University students (Swiss)",32,1598627,40,6532,1,24,63,2,1,0.819
9,"vonbastiaan_2015_evidence",31,"University students (Swiss)",32,1598628,40,6532,1,25,63,1,1,0.575
9,"vonbastiaan_2015_evidence",31,"University students (Swiss)",32,1598629,40,6532,1,26,63,1,1,0.461
9,"vonbastiaan_2015_evidence",31,"University students (Swiss)",32,1598630,40,6532,1,27,63,1,1,0.504
9,"vonbastiaan_2015_evidence",31,"University students (Swiss)",32,1598631,40,6532,1,28,63,1,1,0.508
9,"vonbastiaan_2015_evidence",31,"University students (Swiss)",32,1598632,40,6532,1,29,63,2,1,0.664
9,"vonbastiaan_2015_evidence",31,"University students (Swiss)",32,1598635,40,6532,1,32,63,2,1,0.547
9,"vonbastiaan_2015_evidence",31,"University students (Swiss)",32,1598636,40,6532,1,33,63,1,1,0.609
9,"vonbastiaan_2015_evidence",31,"University students (Swiss)",32,1598638,40,6532,1,35,63,1,1,0.48
9,"vonbastiaan_2015_evidence",31,"University students (Swiss)",32,1598639,40,6532,1,36,63,1,1,0.555
9,"vonbastiaan_2015_evidence",31,"University students (Swiss)",32,1598641,40,6532,1,38,63,2,1,0.892
9,"vonbastiaan_2015_evidence",31,"University students (Swiss)",32,1598642,40,6532,1,39,63,1,1,0.59
9,"vonbastiaan_2015_evidence",31,"University students (Swiss)",32,1598643,40,6532,1,40,63,2,1,0.492
9,"vonbastiaan_2015_evidence",31,"University students (Swiss)",32,1598644,40,6532,1,41,63,2,1,0.479
9,"vonbastiaan_2015_evidence",31,"University students (Swiss)",32,1598645,40,6532,1,42,63,2,1,0.579
9,"vonbastiaan_2015_evidence",31,"University students (Swiss)",32,1598646,40,6532,1,43,63,1,1,0.472
9,"vonbastiaan_2015_evidence",31,"University students (Swiss)",32,1598647,40,6532,1,44,63,2,1,1.083
9,"vonbastiaan_2015_evidence",31,"University students (Swiss)",32,1598648,40,6532,1,45,63,2,1,0.734
9,"vonbastiaan_2015_evidence",31,"University students (Swiss)",32,1598650,40,6532,1,47,63,1,1,0.686
9,"vonbastiaan_2015_evidence",31,"University students (Swiss)",32,1598651,40,6532,1,48,63,2,1,0.703
9,"vonbastiaan_2015_evidence",31,"University students (Swiss)",32,1598654,40,6532,1,51,63,1,1,0.634
9,"vonbastiaan_2015_evidence",31,"University students (Swiss)",32,1598655,40,6532,1,52,63,2,1,0.585
9,"vonbastiaan_2015_evidence",31,"University students (Swiss)",32,1598657,40,6532,1,54,63,2,1,0.747
9,"vonbastiaan_2015_evidence",31,"University students (Swiss)",32,1598659,40,6532,1,56,63,2,0,0.727
9,"vonbastiaan_2015_evidence",31,"University students (Swiss)",32,1598660,40,6532,1,57,63,2,1,0.817
9,"vonbastiaan_2015_evidence",31,"University students (Swiss)",32,1598661,40,6532,1,58,63,1,1,0.709
9,"vonbastiaan_2015_evidence",31,"University students (Swiss)",32,1598662,40,6532,1,59,63,2,1,0.718
9,"vonbastiaan_2015_evidence",31,"University students (Swiss)",32,1598663,40,6532,1,60,63,1,1,0.983
9,"vonbastiaan_2015_evidence",31,"University students (Swiss)",32,1598665,40,6532,1,62,63,2,1,0.799
9,"vonbastiaan_2015_evidence",31,"University students (Swiss)",32,1598666,40,6532,1,63,63,2,1,0.583
9,"vonbastiaan_2015_evidence",31,"University students (Swiss)",32,1598667,40,6532,1,64,63,1,1,0.613
9,"vonbastiaan_2015_evidence",31,"University students (Swiss)",32,1598668,40,6532,1,65,63,2,1,0.499
9,"vonbastiaan_2015_evidence",31,"University students (Swiss)",32,1598669,40,6532,1,66,63,2,1,0.815
9,"vonbastiaan_2015_evidence",31,"University students (Swiss)",32,1598670,40,6532,1,67,63,2,1,0.563
9,"vonbastiaan_2015_evidence",31,"University students (Swiss)",32,1598671,40,6532,1,68,63,1,1,0.64
9,"vonbastiaan_2015_evidence",31,"University students (Swiss)",32,1598672,40,6532,1,69,63,1,1,0.551
9,"vonbastiaan_2015_evidence",31,"University students (Swiss)",32,1598676,40,6532,1,73,63,2,1,0.847
9,"vonbastiaan_2015_evidence",31,"University students (Swiss)",32,1598679,40,6532,1,76,63,1,1,0.591
9,"vonbastiaan_2015_evidence",31,"University students (Swiss)",32,1598680,40,6532,1,77,63,1,1,0.565
9,"vonbastiaan_2015_evidence",31,"University students (Swiss)",32,1598681,40,6532,1,78,63,1,1,0.603
9,"vonbastiaan_2015_evidence",31,"University students (Swiss)",32,1598682,40,6532,1,79,63,2,1,0.513
9,"vonbastiaan_2015_evidence",31,"University students (Swiss)",32,1598684,40,6532,1,81,63,2,1,0.57
9,"vonbastiaan_2015_evidence",31,"University students (Swiss)",32,1598686,40,6532,1,83,63,1,1,0.84
9,"vonbastiaan_2015_evidence",31,"University students (Swiss)",32,1598688,40,6532,1,85,63,1,1,0.596
9,"vonbastiaan_2015_evidence",31,"University students (Swiss)",32,1598689,40,6532,1,86,63,1,1,0.606
9,"vonbastiaan_2015_evidence",31,"University students (Swiss)",32,1598690,40,6532,1,87,63,1,1,0.565
9,"vonbastiaan_2015_evidence",31,"University students (Swiss)",32,1598692,40,6532,1,89,63,2,1,0.823
9,"vonbastiaan_2015_evidence",31,"University students (Swiss)",32,1598693,40,6532,1,90,63,2,1,0.571
9,"vonbastiaan_2015_evidence",31,"University students (Swiss)",32,1598694,40,6532,1,91,63,1,1,0.585
9,"vonbastiaan_2015_evidence",31,"University students (Swiss)",32,1598696,40,6532,1,93,63,1,1,0.597
9,"vonbastiaan_2015_evidence",31,"University students (Swiss)",32,1598700,40,6532,1,97,63,1,1,0.735
9,"vonbastiaan_2015_evidence",31,"University students (Swiss)",32,1598702,40,6532,1,99,63,2,1,0.665
9,"vonbastiaan_2015_evidence",31,"University students (Swiss)",32,1598703,40,6532,1,100,63,2,1,0.94
9,"vonbastiaan_2015_evidence",31,"University students (Swiss)",32,1598704,40,6532,1,101,63,1,1,0.568
9,"vonbastiaan_2015_evidence",31,"University students (Swiss)",32,1598705,40,6532,1,102,63,1,1,0.533
9,"vonbastiaan_2015_evidence",31,"University students (Swiss)",32,1598706,40,6532,1,103,63,2,1,0.65
9,"vonbastiaan_2015_evidence",31,"University students (Swiss)",32,1598707,40,6532,1,104,63,2,1,0.746
9,"vonbastiaan_2015_evidence",31,"University students (Swiss)",32,1598708,40,6532,1,105,63,2,1,1.828
9,"vonbastiaan_2015_evidence",31,"University students (Swiss)",32,1598710,40,6532,1,107,63,1,1,0.675
9,"vonbastiaan_2015_evidence",31,"University students (Swiss)",32,1598712,40,6532,1,109,63,2,0,1.263
9,"vonbastiaan_2015_evidence",31,"University students (Swiss)",32,1598713,40,6532,1,110,63,1,1,0.607
9,"vonbastiaan_2015_evidence",31,"University students (Swiss)",32,1598715,40,6532,1,112,63,1,1,0.459
9,"vonbastiaan_2015_evidence",31,"University students (Swiss)",32,1598718,40,6532,1,115,63,1,1,0.694
9,"vonbastiaan_2015_evidence",31,"University students (Swiss)",32,1598722,40,6532,1,119,63,2,0,0.642
9,"vonbastiaan_2015_evidence",31,"University students (Swiss)",32,1598723,40,6532,1,120,63,2,1,1.346
9,"vonbastiaan_2015_evidence",31,"University students (Swiss)",32,1598725,40,6532,1,122,63,2,0,0.567
9,"vonbastiaan_2015_evidence",31,"University students (Swiss)",32,1598726,40,6532,1,123,63,1,1,1.188
9,"vonbastiaan_2015_evidence",31,"University students (Swiss)",32,1598727,40,6532,1,124,63,2,1,0.674
9,"vonbastiaan_2015_evidence",31,"University students (Swiss)",32,1598730,40,6532,1,127,63,1,1,0.668
9,"vonbastiaan_2015_evidence",31,"University students (Swiss)",32,1598731,40,6532,1,128,63,1,1,0.548
9,"vonbastiaan_2015_evidence",31,"University students (Swiss)",32,1598732,40,6532,1,129,63,1,1,0.577
9,"vonbastiaan_2015_evidence",31,"University students (Swiss)",32,1598733,40,6532,1,130,63,1,1,0.526
9,"vonbastiaan_2015_evidence",31,"University students (Swiss)",32,1598734,40,6532,1,131,63,2,1,0.739
9,"vonbastiaan_2015_evidence",31,"University students (Swiss)",32,1598737,40,6532,1,134,63,2,1,0.574
9,"vonbastiaan_2015_evidence",31,"University students (Swiss)",32,1598738,40,6532,1,135,63,1,1,0.58
9,"vonbastiaan_2015_evidence",31,"University students (Swiss)",32,1598740,40,6532,1,137,63,2,1,0.76
9,"vonbastiaan_2015_evidence",31,"University students (Swiss)",32,1598743,40,6532,1,140,63,2,1,0.709
9,"vonbastiaan_2015_evidence",31,"University students (Swiss)",32,1598744,40,6532,1,141,63,2,1,0.614
9,"vonbastiaan_2015_evidence",31,"University students (Swiss)",32,1598745,40,6532,1,142,63,1,1,0.541
9,"vonbastiaan_2015_evidence",31,"University students (Swiss)",32,1598747,40,6532,1,144,63,1,1,0.531
9,"vonbastiaan_2015_evidence",31,"University students (Swiss)",32,1598751,40,6533,1,4,63,2,1,0.708
9,"vonbastiaan_2015_evidence",31,"University students (Swiss)",32,1598753,40,6533,1,6,63,2,1,0.474
9,"vonbastiaan_2015_evidence",31,"University students (Swiss)",32,1598754,40,6533,1,7,63,2,1,0.645
9,"vonbastiaan_2015_evidence",31,"University students (Swiss)",32,1598755,40,6533,1,8,63,2,1,0.549
9,"vonbastiaan_2015_evidence",31,"University students (Swiss)",32,1598756,40,6533,1,9,63,1,1,0.594
9,"vonbastiaan_2015_evidence",31,"University students (Swiss)",32,1598757,40,6533,1,10,63,2,1,0.633
9,"vonbastiaan_2015_evidence",31,"University students (Swiss)",32,1598759,40,6533,1,12,63,1,1,0.662
9,"vonbastiaan_2015_evidence",31,"University students (Swiss)",32,1598760,40,6533,1,13,63,1,1,0.63
9,"vonbastiaan_2015_evidence",31,"University students (Swiss)",32,1598762,40,6533,1,15,63,2,1,0.693
9,"vonbastiaan_2015_evidence",31,"University students (Swiss)",32,1598763,40,6533,1,16,63,1,1,0.518
9,"vonbastiaan_2015_evidence",31,"University students (Swiss)",32,1598764,40,6533,1,17,63,2,1,0.643
9,"vonbastiaan_2015_evidence",31,"University students (Swiss)",32,1598765,40,6533,1,18,63,1,1,0.53
9,"vonbastiaan_2015_evidence",31,"University students (Swiss)",32,1598766,40,6533,1,19,63,2,1,0.823
9,"vonbastiaan_2015_evidence",31,"University students (Swiss)",32,1598767,40,6533,1,20,63,1,1,0.579
9,"vonbastiaan_2015_evidence",31,"University students (Swiss)",32,1598768,40,6533,1,21,63,1,1,0.481
9,"vonbastiaan_2015_evidence",31,"University students (Swiss)",32,1598770,40,6533,1,23,63,1,1,0.537
9,"vonbastiaan_2015_evidence",31,"University students (Swiss)",32,1598771,40,6533,1,24,63,2,1,0.606
9,"vonbastiaan_2015_evidence",31,"University students (Swiss)",32,1598772,40,6533,1,25,63,1,1,0.581
9,"vonbastiaan_2015_evidence",31,"University students (Swiss)",32,1598773,40,6533,1,26,63,1,1,0.579
9,"vonbastiaan_2015_evidence",31,"University students (Swiss)",32,1598774,40,6533,1,27,63,1,1,0.681
9,"vonbastiaan_2015_evidence",31,"University students (Swiss)",32,1598775,40,6533,1,28,63,1,1,0.609
9,"vonbastiaan_2015_evidence",31,"University students (Swiss)",32,1598776,40,6533,1,29,63,2,1,0.615
9,"vonbastiaan_2015_evidence",31,"University students (Swiss)",32,1598779,40,6533,1,32,63,2,1,0.6
9,"vonbastiaan_2015_evidence",31,"University students (Swiss)",32,1598780,40,6533,1,33,63,1,1,0.519
9,"vonbastiaan_2015_evidence",31,"University students (Swiss)",32,1598782,40,6533,1,35,63,1,1,0.633
9,"vonbastiaan_2015_evidence",31,"University students (Swiss)",32,1598783,40,6533,1,36,63,1,1,0.521
9,"vonbastiaan_2015_evidence",31,"University students (Swiss)",32,1598785,40,6533,1,38,63,2,1,0.784
9,"vonbastiaan_2015_evidence",31,"University students (Swiss)",32,1598786,40,6533,1,39,63,1,1,0.476
9,"vonbastiaan_2015_evidence",31,"University students (Swiss)",32,1598787,40,6533,1,40,63,2,1,0.535
9,"vonbastiaan_2015_evidence",31,"University students (Swiss)",32,1598788,40,6533,1,41,63,2,0,0.532
9,"vonbastiaan_2015_evidence",31,"University students (Swiss)",32,1598789,40,6533,1,42,63,2,1,1.169
9,"vonbastiaan_2015_evidence",31,"University students (Swiss)",32,1598790,40,6533,1,43,63,1,1,0.461
9,"vonbastiaan_2015_evidence",31,"University students (Swiss)",32,1598791,40,6533,1,44,63,2,1,0.76
9,"vonbastiaan_2015_evidence",31,"University students (Swiss)",32,1598792,40,6533,1,45,63,2,1,0.634
9,"vonbastiaan_2015_evidence",31,"University students (Swiss)",32,1598794,40,6533,1,47,63,1,1,0.546
9,"vonbastiaan_2015_evidence",31,"University students (Swiss)",32,1598795,40,6533,1,48,63,2,1,0.527
9,"vonbastiaan_2015_evidence",31,"University students (Swiss)",32,1598798,40,6533,1,51,63,1,1,0.532
9,"vonbastiaan_2015_evidence",31,"University students (Swiss)",32,1598799,40,6533,1,52,63,2,1,0.521
9,"vonbastiaan_2015_evidence",31,"University students (Swiss)",32,1598801,40,6533,1,54,63,2,0,0.61
9,"vonbastiaan_2015_evidence",31,"University students (Swiss)",32,1598803,40,6533,1,56,63,2,1,0.592
9,"vonbastiaan_2015_evidence",31,"University students (Swiss)",32,1598804,40,6533,1,57,63,2,0,0.758
9,"vonbastiaan_2015_evidence",31,"University students (Swiss)",32,1598805,40,6533,1,58,63,1,1,0.632
9,"vonbastiaan_2015_evidence",31,"University students (Swiss)",32,1598806,40,6533,1,59,63,2,1,0.639
9,"vonbastiaan_2015_evidence",31,"University students (Swiss)",32,1598807,40,6533,1,60,63,1,1,1.054
9,"vonbastiaan_2015_evidence",31,"University students (Swiss)",32,1598809,40,6533,1,62,63,2,1,0.605
9,"vonbastiaan_2015_evidence",31,"University students (Swiss)",32,1598810,40,6533,1,63,63,2,1,1.156
9,"vonbastiaan_2015_evidence",31,"University students (Swiss)",32,1598811,40,6533,1,64,63,1,1,0.681
9,"vonbastiaan_2015_evidence",31,"University students (Swiss)",32,1598812,40,6533,1,65,63,2,1,0.569
9,"vonbastiaan_2015_evidence",31,"University students (Swiss)",32,1598813,40,6533,1,66,63,2,0,0.558
9,"vonbastiaan_2015_evidence",31,"University students (Swiss)",32,1598814,40,6533,1,67,63,2,1,1.06
9,"vonbastiaan_2015_evidence",31,"University students (Swiss)",32,1598815,40,6533,1,68,63,1,1,0.59
9,"vonbastiaan_2015_evidence",31,"University students (Swiss)",32,1598816,40,6533,1,69,63,1,1,0.572
9,"vonbastiaan_2015_evidence",31,"University students (Swiss)",32,1598820,40,6533,1,73,63,2,1,0.678
9,"vonbastiaan_2015_evidence",31,"University students (Swiss)",32,1598823,40,6533,1,76,63,1,1,0.526
9,"vonbastiaan_2015_evidence",31,"University students (Swiss)",32,1598824,40,6533,1,77,63,1,1,0.522
9,"vonbastiaan_2015_evidence",31,"University students (Swiss)",32,1598825,40,6533,1,78,63,1,1,0.51
9,"vonbastiaan_2015_evidence",31,"University students (Swiss)",32,1598826,40,6533,1,79,63,2,1,0.89
9,"vonbastiaan_2015_evidence",31,"University students (Swiss)",32,1598828,40,6533,1,81,63,2,1,0.598
9,"vonbastiaan_2015_evidence",31,"University students (Swiss)",32,1598830,40,6533,1,83,63,1,1,0.676
9,"vonbastiaan_2015_evidence",31,"University students (Swiss)",32,1598832,40,6533,1,85,63,1,1,0.449
9,"vonbastiaan_2015_evidence",31,"University students (Swiss)",32,1598833,40,6533,1,86,63,1,1,0.707
9,"vonbastiaan_2015_evidence",31,"University students (Swiss)",32,1598834,40,6533,1,87,63,1,1,0.557
9,"vonbastiaan_2015_evidence",31,"University students (Swiss)",32,1598836,40,6533,1,89,63,2,0,0.525
9,"vonbastiaan_2015_evidence",31,"University students (Swiss)",32,1598837,40,6533,1,90,63,2,1,1.257
9,"vonbastiaan_2015_evidence",31,"University students (Swiss)",32,1598838,40,6533,1,91,63,1,1,0.584
9,"vonbastiaan_2015_evidence",31,"University students (Swiss)",32,1598840,40,6533,1,93,63,1,1,0.495
9,"vonbastiaan_2015_evidence",31,"University students (Swiss)",32,1598844,40,6533,1,97,63,1,1,0.612
9,"vonbastiaan_2015_evidence",31,"University students (Swiss)",32,1598846,40,6533,1,99,63,2,1,0.504
9,"vonbastiaan_2015_evidence",31,"University students (Swiss)",32,1598847,40,6533,1,100,63,2,1,0.532
9,"vonbastiaan_2015_evidence",31,"University students (Swiss)",32,1598848,40,6533,1,101,63,1,1,0.417
9,"vonbastiaan_2015_evidence",31,"University students (Swiss)",32,1598849,40,6533,1,102,63,1,1,0.475
9,"vonbastiaan_2015_evidence",31,"University students (Swiss)",32,1598850,40,6533,1,103,63,2,1,0.729
9,"vonbastiaan_2015_evidence",31,"University students (Swiss)",32,1598851,40,6533,1,104,63,2,0,0.616
9,"vonbastiaan_2015_evidence",31,"University students (Swiss)",32,1598852,40,6533,1,105,63,2,1,1.55
9,"vonbastiaan_2015_evidence",31,"University students (Swiss)",32,1598854,40,6533,1,107,63,1,1,0.698
9,"vonbastiaan_2015_evidence",31,"University students (Swiss)",32,1598856,40,6533,1,109,63,2,1,0.466
9,"vonbastiaan_2015_evidence",31,"University students (Swiss)",32,1598857,40,6533,1,110,63,1,1,0.588
9,"vonbastiaan_2015_evidence",31,"University students (Swiss)",32,1598859,40,6533,1,112,63,1,1,0.534
9,"vonbastiaan_2015_evidence",31,"University students (Swiss)",32,1598862,40,6533,1,115,63,1,1,0.473
9,"vonbastiaan_2015_evidence",31,"University students (Swiss)",32,1598866,40,6533,1,119,63,2,1,0.601
9,"vonbastiaan_2015_evidence",31,"University students (Swiss)",32,1598867,40,6533,1,120,63,2,1,0.616
9,"vonbastiaan_2015_evidence",31,"University students (Swiss)",32,1598869,40,6533,1,122,63,2,1,0.909
9,"vonbastiaan_2015_evidence",31,"University students (Swiss)",32,1598870,40,6533,1,123,63,1,1,0.404
9,"vonbastiaan_2015_evidence",31,"University students (Swiss)",32,1598871,40,6533,1,124,63,2,1,0.701
9,"vonbastiaan_2015_evidence",31,"University students (Swiss)",32,1598874,40,6533,1,127,63,1,1,0.663
9,"vonbastiaan_2015_evidence",31,"University students (Swiss)",32,1598875,40,6533,1,128,63,1,1,0.495
9,"vonbastiaan_2015_evidence",31,"University students (Swiss)",32,1598876,40,6533,1,129,63,1,1,0.531
9,"vonbastiaan_2015_evidence",31,"University students (Swiss)",32,1598877,40,6533,1,130,63,1,1,0.455
9,"vonbastiaan_2015_evidence",31,"University students (Swiss)",32,1598878,40,6533,1,131,63,2,1,1.258
9,"vonbastiaan_2015_evidence",31,"University students (Swiss)",32,1598881,40,6533,1,134,63,2,1,0.564
9,"vonbastiaan_2015_evidence",31,"University students (Swiss)",32,1598882,40,6533,1,135,63,1,1,0.674
9,"vonbastiaan_2015_evidence",31,"University students (Swiss)",32,1598884,40,6533,1,137,63,2,1,0.653
9,"vonbastiaan_2015_evidence",31,"University students (Swiss)",32,1598887,40,6533,1,140,63,2,1,0.57
9,"vonbastiaan_2015_evidence",31,"University students (Swiss)",32,1598888,40,6533,1,141,63,2,1,0.632
9,"vonbastiaan_2015_evidence",31,"University students (Swiss)",32,1598889,40,6533,1,142,63,1,1,0.503
9,"vonbastiaan_2015_evidence",31,"University students (Swiss)",32,1598891,40,6533,1,144,63,1,1,0.375
9,"vonbastiaan_2015_evidence",31,"University students (Swiss)",32,1598895,40,6534,1,4,63,2,1,0.651
9,"vonbastiaan_2015_evidence",31,"University students (Swiss)",32,1598897,40,6534,1,6,63,2,1,0.655
9,"vonbastiaan_2015_evidence",31,"University students (Swiss)",32,1598898,40,6534,1,7,63,2,1,0.918
9,"vonbastiaan_2015_evidence",31,"University students (Swiss)",32,1598899,40,6534,1,8,63,2,1,0.588
9,"vonbastiaan_2015_evidence",31,"University students (Swiss)",32,1598900,40,6534,1,9,63,1,1,0.867
9,"vonbastiaan_2015_evidence",31,"University students (Swiss)",32,1598901,40,6534,1,10,63,2,1,1.039
9,"vonbastiaan_2015_evidence",31,"University students (Swiss)",32,1598903,40,6534,1,12,63,1,1,1.078
9,"vonbastiaan_2015_evidence",31,"University students (Swiss)",32,1598904,40,6534,1,13,63,1,1,0.568
9,"vonbastiaan_2015_evidence",31,"University students (Swiss)",32,1598906,40,6534,1,15,63,2,1,0.411
9,"vonbastiaan_2015_evidence",31,"University students (Swiss)",32,1598907,40,6534,1,16,63,1,1,0.733
9,"vonbastiaan_2015_evidence",31,"University students (Swiss)",32,1598908,40,6534,1,17,63,2,1,0.982
9,"vonbastiaan_2015_evidence",31,"University students (Swiss)",32,1598909,40,6534,1,18,63,1,0,0.622
9,"vonbastiaan_2015_evidence",31,"University students (Swiss)",32,1598910,40,6534,1,19,63,2,1,1.053
9,"vonbastiaan_2015_evidence",31,"University students (Swiss)",32,1598911,40,6534,1,20,63,1,1,0.734
9,"vonbastiaan_2015_evidence",31,"University students (Swiss)",32,1598912,40,6534,1,21,63,1,1,0.688
9,"vonbastiaan_2015_evidence",31,"University students (Swiss)",32,1598914,40,6534,1,23,63,1,1,0.692
9,"vonbastiaan_2015_evidence",31,"University students (Swiss)",32,1598915,40,6534,1,24,63,2,1,0.765
9,"vonbastiaan_2015_evidence",31,"University students (Swiss)",32,1598916,40,6534,1,25,63,1,1,0.639
9,"vonbastiaan_2015_evidence",31,"University students (Swiss)",32,1598917,40,6534,1,26,63,1,1,0.59
9,"vonbastiaan_2015_evidence",31,"University students (Swiss)",32,1598918,40,6534,1,27,63,1,1,0.604
9,"vonbastiaan_2015_evidence",31,"University students (Swiss)",32,1598919,40,6534,1,28,63,1,1,0.907
9,"vonbastiaan_2015_evidence",31,"University students (Swiss)",32,1598920,40,6534,1,29,63,2,1,0.889
9,"vonbastiaan_2015_evidence",31,"University students (Swiss)",32,1598923,40,6534,1,32,63,2,1,0.736
9,"vonbastiaan_2015_evidence",31,"University students (Swiss)",32,1598924,40,6534,1,33,63,1,1,0.866
9,"vonbastiaan_2015_evidence",31,"University students (Swiss)",32,1598926,40,6534,1,35,63,1,1,0.791
9,"vonbastiaan_2015_evidence",31,"University students (Swiss)",32,1598927,40,6534,1,36,63,1,1,0.866
9,"vonbastiaan_2015_evidence",31,"University students (Swiss)",32,1598929,40,6534,1,38,63,2,1,0.739
9,"vonbastiaan_2015_evidence",31,"University students (Swiss)",32,1598930,40,6534,1,39,63,1,1,0.548
9,"vonbastiaan_2015_evidence",31,"University students (Swiss)",32,1598931,40,6534,1,40,63,2,1,0.777
9,"vonbastiaan_2015_evidence",31,"University students (Swiss)",32,1598932,40,6534,1,41,63,2,0,0.532
9,"vonbastiaan_2015_evidence",31,"University students (Swiss)",32,1598933,40,6534,1,42,63,2,1,1.433
9,"vonbastiaan_2015_evidence",31,"University students (Swiss)",32,1598934,40,6534,1,43,63,1,1,0.804
9,"vonbastiaan_2015_evidence",31,"University students (Swiss)",32,1598935,40,6534,1,44,63,2,1,0.639
9,"vonbastiaan_2015_evidence",31,"University students (Swiss)",32,1598936,40,6534,1,45,63,2,1,0.67
9,"vonbastiaan_2015_evidence",31,"University students (Swiss)",32,1598938,40,6534,1,47,63,1,1,0.863
9,"vonbastiaan_2015_evidence",31,"University students (Swiss)",32,1598939,40,6534,1,48,63,2,1,0.908
9,"vonbastiaan_2015_evidence",31,"University students (Swiss)",32,1598942,40,6534,1,51,63,1,1,0.781
9,"vonbastiaan_2015_evidence",31,"University students (Swiss)",32,1598943,40,6534,1,52,63,2,1,0.624
9,"vonbastiaan_2015_evidence",31,"University students (Swiss)",32,1598945,40,6534,1,54,63,2,1,0.555
9,"vonbastiaan_2015_evidence",31,"University students (Swiss)",32,1598947,40,6534,1,56,63,2,1,0.683
9,"vonbastiaan_2015_evidence",31,"University students (Swiss)",32,1598948,40,6534,1,57,63,2,1,0.748
9,"vonbastiaan_2015_evidence",31,"University students (Swiss)",32,1598949,40,6534,1,58,63,1,1,0.63
9,"vonbastiaan_2015_evidence",31,"University students (Swiss)",32,1598950,40,6534,1,59,63,2,1,0.812
9,"vonbastiaan_2015_evidence",31,"University students (Swiss)",32,1598951,40,6534,1,60,63,1,1,0.632
9,"vonbastiaan_2015_evidence",31,"University students (Swiss)",32,1598953,40,6534,1,62,63,2,1,0.864
9,"vonbastiaan_2015_evidence",31,"University students (Swiss)",32,1598954,40,6534,1,63,63,2,1,0.533
9,"vonbastiaan_2015_evidence",31,"University students (Swiss)",32,1598955,40,6534,1,64,63,1,1,0.561
9,"vonbastiaan_2015_evidence",31,"University students (Swiss)",32,1598956,40,6534,1,65,63,2,1,0.638
9,"vonbastiaan_2015_evidence",31,"University students (Swiss)",32,1598957,40,6534,1,66,63,2,1,0.75
9,"vonbastiaan_2015_evidence",31,"University students (Swiss)",32,1598958,40,6534,1,67,63,2,1,0.712
9,"vonbastiaan_2015_evidence",31,"University students (Swiss)",32,1598959,40,6534,1,68,63,1,1,0.665
9,"vonbastiaan_2015_evidence",31,"University students (Swiss)",32,1598960,40,6534,1,69,63,1,1,0.769
9,"vonbastiaan_2015_evidence",31,"University students (Swiss)",32,1598964,40,6534,1,73,63,2,1,0.492
9,"vonbastiaan_2015_evidence",31,"University students (Swiss)",32,1598967,40,6534,1,76,63,1,1,0.375
9,"vonbastiaan_2015_evidence",31,"University students (Swiss)",32,1598968,40,6534,1,77,63,1,1,0.639
9,"vonbastiaan_2015_evidence",31,"University students (Swiss)",32,1598969,40,6534,1,78,63,1,1,1.158
9,"vonbastiaan_2015_evidence",31,"University students (Swiss)",32,1598970,40,6534,1,79,63,2,1,0.651
9,"vonbastiaan_2015_evidence",31,"University students (Swiss)",32,1598972,40,6534,1,81,63,2,1,0.756
9,"vonbastiaan_2015_evidence",31,"University students (Swiss)",32,1598974,40,6534,1,83,63,1,1,0.635
9,"vonbastiaan_2015_evidence",31,"University students (Swiss)",32,1598976,40,6534,1,85,63,1,1,0.69
9,"vonbastiaan_2015_evidence",31,"University students (Swiss)",32,1598977,40,6534,1,86,63,1,1,1.051
9,"vonbastiaan_2015_evidence",31,"University students (Swiss)",32,1598978,40,6534,1,87,63,1,1,0.604
9,"vonbastiaan_2015_evidence",31,"University students (Swiss)",32,1598980,40,6534,1,89,63,2,1,0.838
9,"vonbastiaan_2015_evidence",31,"University students (Swiss)",32,1598981,40,6534,1,90,63,2,1,0.586
9,"vonbastiaan_2015_evidence",31,"University students (Swiss)",32,1598982,40,6534,1,91,63,1,1,0.432
9,"vonbastiaan_2015_evidence",31,"University students (Swiss)",32,1598984,40,6534,1,93,63,1,1,0.557
9,"vonbastiaan_2015_evidence",31,"University students (Swiss)",32,1598988,40,6534,1,97,63,1,1,1.017
9,"vonbastiaan_2015_evidence",31,"University students (Swiss)",32,1598990,40,6534,1,99,63,2,1,0.656
9,"vonbastiaan_2015_evidence",31,"University students (Swiss)",32,1598991,40,6534,1,100,63,2,1,0.8
9,"vonbastiaan_2015_evidence",31,"University students (Swiss)",32,1598992,40,6534,1,101,63,1,1,0.499
9,"vonbastiaan_2015_evidence",31,"University students (Swiss)",32,1598993,40,6534,1,102,63,1,1,0.75
9,"vonbastiaan_2015_evidence",31,"University students (Swiss)",32,1598994,40,6534,1,103,63,2,1,0.928
9,"vonbastiaan_2015_evidence",31,"University students (Swiss)",32,1598995,40,6534,1,104,63,2,1,0.647
9,"vonbastiaan_2015_evidence",31,"University students (Swiss)",32,1598996,40,6534,1,105,63,2,1,0.598
9,"vonbastiaan_2015_evidence",31,"University students (Swiss)",32,1598998,40,6534,1,107,63,1,1,0.709
9,"vonbastiaan_2015_evidence",31,"University students (Swiss)",32,1599000,40,6534,1,109,63,2,1,0.508
9,"vonbastiaan_2015_evidence",31,"University students (Swiss)",32,1599001,40,6534,1,110,63,1,1,0.8
9,"vonbastiaan_2015_evidence",31,"University students (Swiss)",32,1599003,40,6534,1,112,63,1,1,1.113
9,"vonbastiaan_2015_evidence",31,"University students (Swiss)",32,1599006,40,6534,1,115,63,1,1,0.798
9,"vonbastiaan_2015_evidence",31,"University students (Swiss)",32,1599010,40,6534,1,119,63,2,1,0.866
9,"vonbastiaan_2015_evidence",31,"University students (Swiss)",32,1599011,40,6534,1,120,63,2,1,0.935
9,"vonbastiaan_2015_evidence",31,"University students (Swiss)",32,1599013,40,6534,1,122,63,2,0,0.511
9,"vonbastiaan_2015_evidence",31,"University students (Swiss)",32,1599014,40,6534,1,123,63,1,1,1.331
9,"vonbastiaan_2015_evidence",31,"University students (Swiss)",32,1599015,40,6534,1,124,63,2,1,0.476
9,"vonbastiaan_2015_evidence",31,"University students (Swiss)",32,1599018,40,6534,1,127,63,1,1,0.568
9,"vonbastiaan_2015_evidence",31,"University students (Swiss)",32,1599019,40,6534,1,128,63,1,1,0.773
9,"vonbastiaan_2015_evidence",31,"University students (Swiss)",32,1599020,40,6534,1,129,63,1,1,0.583
9,"vonbastiaan_2015_evidence",31,"University students (Swiss)",32,1599021,40,6534,1,130,63,1,1,0.733
9,"vonbastiaan_2015_evidence",31,"University students (Swiss)",32,1599022,40,6534,1,131,63,2,1,0.87
9,"vonbastiaan_2015_evidence",31,"University students (Swiss)",32,1599025,40,6534,1,134,63,2,1,0.616
9,"vonbastiaan_2015_evidence",31,"University students (Swiss)",32,1599026,40,6534,1,135,63,1,0,0.534
9,"vonbastiaan_2015_evidence",31,"University students (Swiss)",32,1599028,40,6534,1,137,63,2,1,0.723
9,"vonbastiaan_2015_evidence",31,"University students (Swiss)",32,1599031,40,6534,1,140,63,2,1,0.936
9,"vonbastiaan_2015_evidence",31,"University students (Swiss)",32,1599032,40,6534,1,141,63,2,1,0.67
9,"vonbastiaan_2015_evidence",31,"University students (Swiss)",32,1599033,40,6534,1,142,63,1,1,0.806
9,"vonbastiaan_2015_evidence",31,"University students (Swiss)",32,1599035,40,6534,1,144,63,1,1,0.444
9,"vonbastiaan_2015_evidence",31,"University students (Swiss)",32,1599039,40,6535,1,4,63,2,0,0.722
9,"vonbastiaan_2015_evidence",31,"University students (Swiss)",32,1599041,40,6535,1,6,63,2,1,0.766
9,"vonbastiaan_2015_evidence",31,"University students (Swiss)",32,1599042,40,6535,1,7,63,2,1,0.873
9,"vonbastiaan_2015_evidence",31,"University students (Swiss)",32,1599043,40,6535,1,8,63,2,1,0.719
9,"vonbastiaan_2015_evidence",31,"University students (Swiss)",32,1599044,40,6535,1,9,63,1,1,0.792
9,"vonbastiaan_2015_evidence",31,"University students (Swiss)",32,1599045,40,6535,1,10,63,2,1,0.716
9,"vonbastiaan_2015_evidence",31,"University students (Swiss)",32,1599047,40,6535,1,12,63,1,1,0.792
9,"vonbastiaan_2015_evidence",31,"University students (Swiss)",32,1599048,40,6535,1,13,63,1,1,0.908
9,"vonbastiaan_2015_evidence",31,"University students (Swiss)",32,1599050,40,6535,1,15,63,2,1,0.821
9,"vonbastiaan_2015_evidence",31,"University students (Swiss)",32,1599051,40,6535,1,16,63,1,1,0.73
9,"vonbastiaan_2015_evidence",31,"University students (Swiss)",32,1599052,40,6535,1,17,63,2,1,0.787
9,"vonbastiaan_2015_evidence",31,"University students (Swiss)",32,1599053,40,6535,1,18,63,1,1,0.782
9,"vonbastiaan_2015_evidence",31,"University students (Swiss)",32,1599054,40,6535,1,19,63,2,1,0.778
9,"vonbastiaan_2015_evidence",31,"University students (Swiss)",32,1599055,40,6535,1,20,63,1,1,0.669
9,"vonbastiaan_2015_evidence",31,"University students (Swiss)",32,1599056,40,6535,1,21,63,1,1,0.661
9,"vonbastiaan_2015_evidence",31,"University students (Swiss)",32,1599058,40,6535,1,23,63,1,1,0.677
9,"vonbastiaan_2015_evidence",31,"University students (Swiss)",32,1599059,40,6535,1,24,63,2,1,0.662
9,"vonbastiaan_2015_evidence",31,"University students (Swiss)",32,1599060,40,6535,1,25,63,1,1,0.726
9,"vonbastiaan_2015_evidence",31,"University students (Swiss)",32,1599061,40,6535,1,26,63,1,1,0.663
9,"vonbastiaan_2015_evidence",31,"University students (Swiss)",32,1599062,40,6535,1,27,63,1,1,0.559
9,"vonbastiaan_2015_evidence",31,"University students (Swiss)",32,1599063,40,6535,1,28,63,1,1,0.605
9,"vonbastiaan_2015_evidence",31,"University students (Swiss)",32,1599064,40,6535,1,29,63,2,0,0.675
9,"vonbastiaan_2015_evidence",31,"University students (Swiss)",32,1599067,40,6535,1,32,63,2,1,0.739
9,"vonbastiaan_2015_evidence",31,"University students (Swiss)",32,1599068,40,6535,1,33,63,1,1,0.741
9,"vonbastiaan_2015_evidence",31,"University students (Swiss)",32,1599070,40,6535,1,35,63,1,1,0.737
9,"vonbastiaan_2015_evidence",31,"University students (Swiss)",32,1599071,40,6535,1,36,63,1,1,0.619
9,"vonbastiaan_2015_evidence",31,"University students (Swiss)",32,1599073,40,6535,1,38,63,2,0,0.922
9,"vonbastiaan_2015_evidence",31,"University students (Swiss)",32,1599074,40,6535,1,39,63,1,1,1.065
9,"vonbastiaan_2015_evidence",31,"University students (Swiss)",32,1599075,40,6535,1,40,63,2,1,0.731
9,"vonbastiaan_2015_evidence",31,"University students (Swiss)",32,1599076,40,6535,1,41,63,2,0,0.765
9,"vonbastiaan_2015_evidence",31,"University students (Swiss)",32,1599077,40,6535,1,42,63,2,1,0.752
9,"vonbastiaan_2015_evidence",31,"University students (Swiss)",32,1599078,40,6535,1,43,63,1,1,0.666
9,"vonbastiaan_2015_evidence",31,"University students (Swiss)",32,1599079,40,6535,1,44,63,2,1,0.746
9,"vonbastiaan_2015_evidence",31,"University students (Swiss)",32,1599080,40,6535,1,45,63,2,1,0.652
9,"vonbastiaan_2015_evidence",31,"University students (Swiss)",32,1599082,40,6535,1,47,63,1,1,0.84
9,"vonbastiaan_2015_evidence",31,"University students (Swiss)",32,1599083,40,6535,1,48,63,2,1,0.829
9,"vonbastiaan_2015_evidence",31,"University students (Swiss)",32,1599086,40,6535,1,51,63,1,1,0.71
9,"vonbastiaan_2015_evidence",31,"University students (Swiss)",32,1599087,40,6535,1,52,63,2,1,0.72
9,"vonbastiaan_2015_evidence",31,"University students (Swiss)",32,1599089,40,6535,1,54,63,2,1,0.763
9,"vonbastiaan_2015_evidence",31,"University students (Swiss)",32,1599091,40,6535,1,56,63,2,1,0.728
9,"vonbastiaan_2015_evidence",31,"University students (Swiss)",32,1599092,40,6535,1,57,63,2,1,0.769
9,"vonbastiaan_2015_evidence",31,"University students (Swiss)",32,1599093,40,6535,1,58,63,1,1,0.788
9,"vonbastiaan_2015_evidence",31,"University students (Swiss)",32,1599094,40,6535,1,59,63,2,1,0.999
9,"vonbastiaan_2015_evidence",31,"University students (Swiss)",32,1599095,40,6535,1,60,63,1,1,0.864
9,"vonbastiaan_2015_evidence",31,"University students (Swiss)",32,1599097,40,6535,1,62,63,2,1,0.71
9,"vonbastiaan_2015_evidence",31,"University students (Swiss)",32,1599098,40,6535,1,63,63,2,1,0.823
9,"vonbastiaan_2015_evidence",31,"University students (Swiss)",32,1599099,40,6535,1,64,63,1,1,0.987
9,"vonbastiaan_2015_evidence",31,"University students (Swiss)",32,1599100,40,6535,1,65,63,2,1,0.788
9,"vonbastiaan_2015_evidence",31,"University students (Swiss)",32,1599101,40,6535,1,66,63,2,1,0.991
9,"vonbastiaan_2015_evidence",31,"University students (Swiss)",32,1599102,40,6535,1,67,63,2,1,0.695
9,"vonbastiaan_2015_evidence",31,"University students (Swiss)",32,1599103,40,6535,1,68,63,1,1,0.64
9,"vonbastiaan_2015_evidence",31,"University students (Swiss)",32,1599104,40,6535,1,69,63,1,1,0.688
9,"vonbastiaan_2015_evidence",31,"University students (Swiss)",32,1599108,40,6535,1,73,63,2,1,0.819
9,"vonbastiaan_2015_evidence",31,"University students (Swiss)",32,1599111,40,6535,1,76,63,1,1,0.675
9,"vonbastiaan_2015_evidence",31,"University students (Swiss)",32,1599112,40,6535,1,77,63,1,1,0.612
9,"vonbastiaan_2015_evidence",31,"University students (Swiss)",32,1599113,40,6535,1,78,63,1,1,0.714
9,"vonbastiaan_2015_evidence",31,"University students (Swiss)",32,1599114,40,6535,1,79,63,2,1,0.732
9,"vonbastiaan_2015_evidence",31,"University students (Swiss)",32,1599116,40,6535,1,81,63,2,1,0.606
9,"vonbastiaan_2015_evidence",31,"University students (Swiss)",32,1599118,40,6535,1,83,63,1,1,0.756
9,"vonbastiaan_2015_evidence",31,"University students (Swiss)",32,1599120,40,6535,1,85,63,1,1,0.76
9,"vonbastiaan_2015_evidence",31,"University students (Swiss)",32,1599121,40,6535,1,86,63,1,1,0.739
9,"vonbastiaan_2015_evidence",31,"University students (Swiss)",32,1599122,40,6535,1,87,63,1,1,0.725
9,"vonbastiaan_2015_evidence",31,"University students (Swiss)",32,1599124,40,6535,1,89,63,2,1,0.728
9,"vonbastiaan_2015_evidence",31,"University students (Swiss)",32,1599125,40,6535,1,90,63,2,1,0.713
9,"vonbastiaan_2015_evidence",31,"University students (Swiss)",32,1599126,40,6535,1,91,63,1,1,0.682
9,"vonbastiaan_2015_evidence",31,"University students (Swiss)",32,1599128,40,6535,1,93,63,1,1,0.618
9,"vonbastiaan_2015_evidence",31,"University students (Swiss)",32,1599132,40,6535,1,97,63,1,1,0.672
9,"vonbastiaan_2015_evidence",31,"University students (Swiss)",32,1599134,40,6535,1,99,63,2,1,0.625
9,"vonbastiaan_2015_evidence",31,"University students (Swiss)",32,1599135,40,6535,1,100,63,2,1,0.712
9,"vonbastiaan_2015_evidence",31,"University students (Swiss)",32,1599136,40,6535,1,101,63,1,1,0.634
9,"vonbastiaan_2015_evidence",31,"University students (Swiss)",32,1599137,40,6535,1,102,63,1,1,0.601
9,"vonbastiaan_2015_evidence",31,"University students (Swiss)",32,1599138,40,6535,1,103,63,2,1,0.664
9,"vonbastiaan_2015_evidence",31,"University students (Swiss)",32,1599139,40,6535,1,104,63,2,1,0.719
9,"vonbastiaan_2015_evidence",31,"University students (Swiss)",32,1599140,40,6535,1,105,63,2,1,0.721
9,"vonbastiaan_2015_evidence",31,"University students (Swiss)",32,1599142,40,6535,1,107,63,1,1,0.723
9,"vonbastiaan_2015_evidence",31,"University students (Swiss)",32,1599144,40,6535,1,109,63,2,1,0.669
9,"vonbastiaan_2015_evidence",31,"University students (Swiss)",32,1599145,40,6535,1,110,63,1,1,0.886
9,"vonbastiaan_2015_evidence",31,"University students (Swiss)",32,1599147,40,6535,1,112,63,1,1,0.556
9,"vonbastiaan_2015_evidence",31,"University students (Swiss)",32,1599150,40,6535,1,115,63,1,1,0.698
9,"vonbastiaan_2015_evidence",31,"University students (Swiss)",32,1599154,40,6535,1,119,63,2,1,0.657
9,"vonbastiaan_2015_evidence",31,"University students (Swiss)",32,1599155,40,6535,1,120,63,2,1,0.625
9,"vonbastiaan_2015_evidence",31,"University students (Swiss)",32,1599157,40,6535,1,122,63,2,1,0.609
9,"vonbastiaan_2015_evidence",31,"University students (Swiss)",32,1599158,40,6535,1,123,63,1,1,0.552
9,"vonbastiaan_2015_evidence",31,"University students (Swiss)",32,1599159,40,6535,1,124,63,2,1,0.661
9,"vonbastiaan_2015_evidence",31,"University students (Swiss)",32,1599162,40,6535,1,127,63,1,1,0.683
9,"vonbastiaan_2015_evidence",31,"University students (Swiss)",32,1599163,40,6535,1,128,63,1,1,0.603
9,"vonbastiaan_2015_evidence",31,"University students (Swiss)",32,1599164,40,6535,1,129,63,1,1,0.577
9,"vonbastiaan_2015_evidence",31,"University students (Swiss)",32,1599165,40,6535,1,130,63,1,1,0.535
9,"vonbastiaan_2015_evidence",31,"University students (Swiss)",32,1599166,40,6535,1,131,63,2,1,0.724
9,"vonbastiaan_2015_evidence",31,"University students (Swiss)",32,1599169,40,6535,1,134,63,2,1,0.593
9,"vonbastiaan_2015_evidence",31,"University students (Swiss)",32,1599170,40,6535,1,135,63,1,1,0.648
9,"vonbastiaan_2015_evidence",31,"University students (Swiss)",32,1599172,40,6535,1,137,63,2,1,0.605
9,"vonbastiaan_2015_evidence",31,"University students (Swiss)",32,1599175,40,6535,1,140,63,2,0,0.873
9,"vonbastiaan_2015_evidence",31,"University students (Swiss)",32,1599176,40,6535,1,141,63,2,1,0.782
9,"vonbastiaan_2015_evidence",31,"University students (Swiss)",32,1599177,40,6535,1,142,63,1,1,0.649
9,"vonbastiaan_2015_evidence",31,"University students (Swiss)",32,1599179,40,6535,1,144,63,1,1,0.675
9,"vonbastiaan_2015_evidence",31,"University students (Swiss)",32,1599183,40,6536,1,4,63,2,0,0.734
9,"vonbastiaan_2015_evidence",31,"University students (Swiss)",32,1599185,40,6536,1,6,63,2,1,1.472
9,"vonbastiaan_2015_evidence",31,"University students (Swiss)",32,1599186,40,6536,1,7,63,2,1,1.46
9,"vonbastiaan_2015_evidence",31,"University students (Swiss)",32,1599187,40,6536,1,8,63,2,1,0.705
9,"vonbastiaan_2015_evidence",31,"University students (Swiss)",32,1599188,40,6536,1,9,63,1,1,0.93
9,"vonbastiaan_2015_evidence",31,"University students (Swiss)",32,1599189,40,6536,1,10,63,2,1,1.217
9,"vonbastiaan_2015_evidence",31,"University students (Swiss)",32,1599191,40,6536,1,12,63,1,1,1.013
9,"vonbastiaan_2015_evidence",31,"University students (Swiss)",32,1599192,40,6536,1,13,63,1,1,0.998
9,"vonbastiaan_2015_evidence",31,"University students (Swiss)",32,1599194,40,6536,1,15,63,2,1,0.905
9,"vonbastiaan_2015_evidence",31,"University students (Swiss)",32,1599195,40,6536,1,16,63,1,1,0.967
9,"vonbastiaan_2015_evidence",31,"University students (Swiss)",32,1599196,40,6536,1,17,63,2,1,0.951
9,"vonbastiaan_2015_evidence",31,"University students (Swiss)",32,1599197,40,6536,1,18,63,1,1,1.062
9,"vonbastiaan_2015_evidence",31,"University students (Swiss)",32,1599198,40,6536,1,19,63,2,1,0.888
9,"vonbastiaan_2015_evidence",31,"University students (Swiss)",32,1599199,40,6536,1,20,63,1,1,1.021
9,"vonbastiaan_2015_evidence",31,"University students (Swiss)",32,1599200,40,6536,1,21,63,1,1,0.646
9,"vonbastiaan_2015_evidence",31,"University students (Swiss)",32,1599202,40,6536,1,23,63,1,1,0.667
9,"vonbastiaan_2015_evidence",31,"University students (Swiss)",32,1599203,40,6536,1,24,63,2,1,0.659
9,"vonbastiaan_2015_evidence",31,"University students (Swiss)",32,1599204,40,6536,1,25,63,1,1,0.643
9,"vonbastiaan_2015_evidence",31,"University students (Swiss)",32,1599205,40,6536,1,26,63,1,1,0.747
9,"vonbastiaan_2015_evidence",31,"University students (Swiss)",32,1599206,40,6536,1,27,63,1,1,0.541
9,"vonbastiaan_2015_evidence",31,"University students (Swiss)",32,1599207,40,6536,1,28,63,1,1,0.73
9,"vonbastiaan_2015_evidence",31,"University students (Swiss)",32,1599208,40,6536,1,29,63,2,1,0.667
9,"vonbastiaan_2015_evidence",31,"University students (Swiss)",32,1599211,40,6536,1,32,63,2,1,0.698
9,"vonbastiaan_2015_evidence",31,"University students (Swiss)",32,1599212,40,6536,1,33,63,1,1,0.683
9,"vonbastiaan_2015_evidence",31,"University students (Swiss)",32,1599214,40,6536,1,35,63,1,1,0.581
9,"vonbastiaan_2015_evidence",31,"University students (Swiss)",32,1599215,40,6536,1,36,63,1,1,0.643
9,"vonbastiaan_2015_evidence",31,"University students (Swiss)",32,1599217,40,6536,1,38,63,2,1,0.786
9,"vonbastiaan_2015_evidence",31,"University students (Swiss)",32,1599218,40,6536,1,39,63,1,1,0.557
9,"vonbastiaan_2015_evidence",31,"University students (Swiss)",32,1599219,40,6536,1,40,63,2,1,0.691
9,"vonbastiaan_2015_evidence",31,"University students (Swiss)",32,1599220,40,6536,1,41,63,2,0,0.588
9,"vonbastiaan_2015_evidence",31,"University students (Swiss)",32,1599221,40,6536,1,42,63,2,1,0.914
9,"vonbastiaan_2015_evidence",31,"University students (Swiss)",32,1599222,40,6536,1,43,63,1,1,0.68
9,"vonbastiaan_2015_evidence",31,"University students (Swiss)",32,1599223,40,6536,1,44,63,2,0,0.992
9,"vonbastiaan_2015_evidence",31,"University students (Swiss)",32,1599224,40,6536,1,45,63,2,1,0.745
9,"vonbastiaan_2015_evidence",31,"University students (Swiss)",32,1599226,40,6536,1,47,63,1,1,0.653
9,"vonbastiaan_2015_evidence",31,"University students (Swiss)",32,1599227,40,6536,1,48,63,2,1,0.804
9,"vonbastiaan_2015_evidence",31,"University students (Swiss)",32,1599230,40,6536,1,51,63,1,1,0.698
9,"vonbastiaan_2015_evidence",31,"University students (Swiss)",32,1599231,40,6536,1,52,63,2,1,0.667
9,"vonbastiaan_2015_evidence",31,"University students (Swiss)",32,1599233,40,6536,1,54,63,2,1,0.741
9,"vonbastiaan_2015_evidence",31,"University students (Swiss)",32,1599235,40,6536,1,56,63,2,1,0.683
9,"vonbastiaan_2015_evidence",31,"University students (Swiss)",32,1599236,40,6536,1,57,63,2,1,0.956
9,"vonbastiaan_2015_evidence",31,"University students (Swiss)",32,1599237,40,6536,1,58,63,1,1,0.699
9,"vonbastiaan_2015_evidence",31,"University students (Swiss)",32,1599238,40,6536,1,59,63,2,1,0.876
9,"vonbastiaan_2015_evidence",31,"University students (Swiss)",32,1599239,40,6536,1,60,63,1,1,1.002
9,"vonbastiaan_2015_evidence",31,"University students (Swiss)",32,1599241,40,6536,1,62,63,2,0,0.846
9,"vonbastiaan_2015_evidence",31,"University students (Swiss)",32,1599242,40,6536,1,63,63,2,0,0.891
9,"vonbastiaan_2015_evidence",31,"University students (Swiss)",32,1599243,40,6536,1,64,63,1,1,2.417
9,"vonbastiaan_2015_evidence",31,"University students (Swiss)",32,1599244,40,6536,1,65,63,2,1,0.725
9,"vonbastiaan_2015_evidence",31,"University students (Swiss)",32,1599245,40,6536,1,66,63,2,1,0.703
9,"vonbastiaan_2015_evidence",31,"University students (Swiss)",32,1599246,40,6536,1,67,63,2,1,0.744
9,"vonbastiaan_2015_evidence",31,"University students (Swiss)",32,1599247,40,6536,1,68,63,1,1,0.738
9,"vonbastiaan_2015_evidence",31,"University students (Swiss)",32,1599248,40,6536,1,69,63,1,1,0.94
9,"vonbastiaan_2015_evidence",31,"University students (Swiss)",32,1599252,40,6536,1,73,63,2,1,0.812
9,"vonbastiaan_2015_evidence",31,"University students (Swiss)",32,1599255,40,6536,1,76,63,1,1,1.242
9,"vonbastiaan_2015_evidence",31,"University students (Swiss)",32,1599256,40,6536,1,77,63,1,1,0.777
9,"vonbastiaan_2015_evidence",31,"University students (Swiss)",32,1599257,40,6536,1,78,63,1,1,0.763
9,"vonbastiaan_2015_evidence",31,"University students (Swiss)",32,1599258,40,6536,1,79,63,2,1,0.766
9,"vonbastiaan_2015_evidence",31,"University students (Swiss)",32,1599260,40,6536,1,81,63,2,1,0.836
9,"vonbastiaan_2015_evidence",31,"University students (Swiss)",32,1599262,40,6536,1,83,63,1,1,0.633
9,"vonbastiaan_2015_evidence",31,"University students (Swiss)",32,1599264,40,6536,1,85,63,1,1,0.675
9,"vonbastiaan_2015_evidence",31,"University students (Swiss)",32,1599265,40,6536,1,86,63,1,1,0.964
9,"vonbastiaan_2015_evidence",31,"University students (Swiss)",32,1599266,40,6536,1,87,63,1,1,0.939
9,"vonbastiaan_2015_evidence",31,"University students (Swiss)",32,1599268,40,6536,1,89,63,2,1,0.715
9,"vonbastiaan_2015_evidence",31,"University students (Swiss)",32,1599269,40,6536,1,90,63,2,1,0.613
9,"vonbastiaan_2015_evidence",31,"University students (Swiss)",32,1599270,40,6536,1,91,63,1,1,0.651
9,"vonbastiaan_2015_evidence",31,"University students (Swiss)",32,1599272,40,6536,1,93,63,1,1,0.666
9,"vonbastiaan_2015_evidence",31,"University students (Swiss)",32,1599276,40,6536,1,97,63,1,1,0.879
9,"vonbastiaan_2015_evidence",31,"University students (Swiss)",32,1599278,40,6536,1,99,63,2,1,0.873
9,"vonbastiaan_2015_evidence",31,"University students (Swiss)",32,1599279,40,6536,1,100,63,2,1,0.823
9,"vonbastiaan_2015_evidence",31,"University students (Swiss)",32,1599280,40,6536,1,101,63,1,1,0.747
9,"vonbastiaan_2015_evidence",31,"University students (Swiss)",32,1599281,40,6536,1,102,63,1,1,0.757
9,"vonbastiaan_2015_evidence",31,"University students (Swiss)",32,1599282,40,6536,1,103,63,2,1,0.855
9,"vonbastiaan_2015_evidence",31,"University students (Swiss)",32,1599283,40,6536,1,104,63,2,1,1.044
9,"vonbastiaan_2015_evidence",31,"University students (Swiss)",32,1599284,40,6536,1,105,63,2,1,1.205
9,"vonbastiaan_2015_evidence",31,"University students (Swiss)",32,1599286,40,6536,1,107,63,1,1,1.307
9,"vonbastiaan_2015_evidence",31,"University students (Swiss)",32,1599288,40,6536,1,109,63,2,1,0.897
9,"vonbastiaan_2015_evidence",31,"University students (Swiss)",32,1599289,40,6536,1,110,63,1,1,0.903
9,"vonbastiaan_2015_evidence",31,"University students (Swiss)",32,1599291,40,6536,1,112,63,1,1,0.819
9,"vonbastiaan_2015_evidence",31,"University students (Swiss)",32,1599294,40,6536,1,115,63,1,1,0.771
9,"vonbastiaan_2015_evidence",31,"University students (Swiss)",32,1599298,40,6536,1,119,63,2,1,1.183
9,"vonbastiaan_2015_evidence",31,"University students (Swiss)",32,1599299,40,6536,1,120,63,2,1,1.493
9,"vonbastiaan_2015_evidence",31,"University students (Swiss)",32,1599301,40,6536,1,122,63,2,1,0.742
9,"vonbastiaan_2015_evidence",31,"University students (Swiss)",32,1599302,40,6536,1,123,63,1,1,0.632
9,"vonbastiaan_2015_evidence",31,"University students (Swiss)",32,1599303,40,6536,1,124,63,2,1,0.903
9,"vonbastiaan_2015_evidence",31,"University students (Swiss)",32,1599306,40,6536,1,127,63,1,1,0.623
9,"vonbastiaan_2015_evidence",31,"University students (Swiss)",32,1599307,40,6536,1,128,63,1,1,0.654
9,"vonbastiaan_2015_evidence",31,"University students (Swiss)",32,1599308,40,6536,1,129,63,1,1,1.173
9,"vonbastiaan_2015_evidence",31,"University students (Swiss)",32,1599309,40,6536,1,130,63,1,1,0.611
9,"vonbastiaan_2015_evidence",31,"University students (Swiss)",32,1599310,40,6536,1,131,63,2,1,0.953
9,"vonbastiaan_2015_evidence",31,"University students (Swiss)",32,1599313,40,6536,1,134,63,2,1,1.223
9,"vonbastiaan_2015_evidence",31,"University students (Swiss)",32,1599314,40,6536,1,135,63,1,1,0.79
9,"vonbastiaan_2015_evidence",31,"University students (Swiss)",32,1599316,40,6536,1,137,63,2,1,0.657
9,"vonbastiaan_2015_evidence",31,"University students (Swiss)",32,1599319,40,6536,1,140,63,2,1,0.855
9,"vonbastiaan_2015_evidence",31,"University students (Swiss)",32,1599320,40,6536,1,141,63,2,1,0.571
9,"vonbastiaan_2015_evidence",31,"University students (Swiss)",32,1599321,40,6536,1,142,63,1,1,0.601
9,"vonbastiaan_2015_evidence",31,"University students (Swiss)",32,1599323,40,6536,1,144,63,1,1,0.531
9,"vonbastiaan_2015_evidence",31,"University students (Swiss)",32,1599327,40,6537,1,4,63,2,1,1.159
9,"vonbastiaan_2015_evidence",31,"University students (Swiss)",32,1599329,40,6537,1,6,63,2,1,0.613
9,"vonbastiaan_2015_evidence",31,"University students (Swiss)",32,1599330,40,6537,1,7,63,2,1,0.811
9,"vonbastiaan_2015_evidence",31,"University students (Swiss)",32,1599331,40,6537,1,8,63,2,1,0.679
9,"vonbastiaan_2015_evidence",31,"University students (Swiss)",32,1599332,40,6537,1,9,63,1,1,0.807
9,"vonbastiaan_2015_evidence",31,"University students (Swiss)",32,1599333,40,6537,1,10,63,2,1,0.779
9,"vonbastiaan_2015_evidence",31,"University students (Swiss)",32,1599335,40,6537,1,12,63,1,1,0.56
9,"vonbastiaan_2015_evidence",31,"University students (Swiss)",32,1599336,40,6537,1,13,63,1,1,0.781
9,"vonbastiaan_2015_evidence",31,"University students (Swiss)",32,1599338,40,6537,1,15,63,2,1,0.639
9,"vonbastiaan_2015_evidence",31,"University students (Swiss)",32,1599339,40,6537,1,16,63,1,1,0.598
9,"vonbastiaan_2015_evidence",31,"University students (Swiss)",32,1599340,40,6537,1,17,63,2,1,0.86
9,"vonbastiaan_2015_evidence",31,"University students (Swiss)",32,1599341,40,6537,1,18,63,1,1,0.761
9,"vonbastiaan_2015_evidence",31,"University students (Swiss)",32,1599342,40,6537,1,19,63,2,1,0.604
9,"vonbastiaan_2015_evidence",31,"University students (Swiss)",32,1599343,40,6537,1,20,63,1,1,0.594
9,"vonbastiaan_2015_evidence",31,"University students (Swiss)",32,1599344,40,6537,1,21,63,1,1,1.265
9,"vonbastiaan_2015_evidence",31,"University students (Swiss)",32,1599346,40,6537,1,23,63,1,1,0.552
9,"vonbastiaan_2015_evidence",31,"University students (Swiss)",32,1599347,40,6537,1,24,63,2,1,0.661
9,"vonbastiaan_2015_evidence",31,"University students (Swiss)",32,1599348,40,6537,1,25,63,1,1,0.597
9,"vonbastiaan_2015_evidence",31,"University students (Swiss)",32,1599349,40,6537,1,26,63,1,1,0.588
9,"vonbastiaan_2015_evidence",31,"University students (Swiss)",32,1599350,40,6537,1,27,63,1,1,0.594
9,"vonbastiaan_2015_evidence",31,"University students (Swiss)",32,1599351,40,6537,1,28,63,1,1,0.552
9,"vonbastiaan_2015_evidence",31,"University students (Swiss)",32,1599352,40,6537,1,29,63,2,0,0.949
9,"vonbastiaan_2015_evidence",31,"University students (Swiss)",32,1599355,40,6537,1,32,63,2,1,0.745
9,"vonbastiaan_2015_evidence",31,"University students (Swiss)",32,1599356,40,6537,1,33,63,1,1,0.596
9,"vonbastiaan_2015_evidence",31,"University students (Swiss)",32,1599358,40,6537,1,35,63,1,1,0.585
9,"vonbastiaan_2015_evidence",31,"University students (Swiss)",32,1599359,40,6537,1,36,63,1,1,0.623
9,"vonbastiaan_2015_evidence",31,"University students (Swiss)",32,1599361,40,6537,1,38,63,2,1,1.398
9,"vonbastiaan_2015_evidence",31,"University students (Swiss)",32,1599362,40,6537,1,39,63,1,1,0.777
9,"vonbastiaan_2015_evidence",31,"University students (Swiss)",32,1599363,40,6537,1,40,63,2,1,0.86
9,"vonbastiaan_2015_evidence",31,"University students (Swiss)",32,1599364,40,6537,1,41,63,2,1,0.793
9,"vonbastiaan_2015_evidence",31,"University students (Swiss)",32,1599365,40,6537,1,42,63,2,1,0.604
9,"vonbastiaan_2015_evidence",31,"University students (Swiss)",32,1599366,40,6537,1,43,63,1,1,0.554
9,"vonbastiaan_2015_evidence",31,"University students (Swiss)",32,1599367,40,6537,1,44,63,2,1,0.824
9,"vonbastiaan_2015_evidence",31,"University students (Swiss)",32,1599368,40,6537,1,45,63,2,1,0.588
9,"vonbastiaan_2015_evidence",31,"University students (Swiss)",32,1599370,40,6537,1,47,63,1,1,0.684
9,"vonbastiaan_2015_evidence",31,"University students (Swiss)",32,1599371,40,6537,1,48,63,2,1,1.196
9,"vonbastiaan_2015_evidence",31,"University students (Swiss)",32,1599374,40,6537,1,51,63,1,1,0.527
9,"vonbastiaan_2015_evidence",31,"University students (Swiss)",32,1599375,40,6537,1,52,63,2,1,0.683
9,"vonbastiaan_2015_evidence",31,"University students (Swiss)",32,1599377,40,6537,1,54,63,2,1,0.683
9,"vonbastiaan_2015_evidence",31,"University students (Swiss)",32,1599379,40,6537,1,56,63,2,1,0.575
9,"vonbastiaan_2015_evidence",31,"University students (Swiss)",32,1599380,40,6537,1,57,63,2,1,0.9
9,"vonbastiaan_2015_evidence",31,"University students (Swiss)",32,1599381,40,6537,1,58,63,1,1,0.674
9,"vonbastiaan_2015_evidence",31,"University students (Swiss)",32,1599382,40,6537,1,59,63,2,1,0.755
9,"vonbastiaan_2015_evidence",31,"University students (Swiss)",32,1599383,40,6537,1,60,63,1,1,0.877
9,"vonbastiaan_2015_evidence",31,"University students (Swiss)",32,1599385,40,6537,1,62,63,2,1,0.72
9,"vonbastiaan_2015_evidence",31,"University students (Swiss)",32,1599386,40,6537,1,63,63,2,1,0.601
9,"vonbastiaan_2015_evidence",31,"University students (Swiss)",32,1599387,40,6537,1,64,63,1,1,0.512
9,"vonbastiaan_2015_evidence",31,"University students (Swiss)",32,1599388,40,6537,1,65,63,2,1,0.548
9,"vonbastiaan_2015_evidence",31,"University students (Swiss)",32,1599389,40,6537,1,66,63,2,1,0.729
9,"vonbastiaan_2015_evidence",31,"University students (Swiss)",32,1599390,40,6537,1,67,63,2,1,0.642
9,"vonbastiaan_2015_evidence",31,"University students (Swiss)",32,1599391,40,6537,1,68,63,1,1,0.498
9,"vonbastiaan_2015_evidence",31,"University students (Swiss)",32,1599392,40,6537,1,69,63,1,1,0.558
9,"vonbastiaan_2015_evidence",31,"University students (Swiss)",32,1599396,40,6537,1,73,63,2,1,0.667
9,"vonbastiaan_2015_evidence",31,"University students (Swiss)",32,1599399,40,6537,1,76,63,1,1,0.658
9,"vonbastiaan_2015_evidence",31,"University students (Swiss)",32,1599400,40,6537,1,77,63,1,1,0.458
9,"vonbastiaan_2015_evidence",31,"University students (Swiss)",32,1599401,40,6537,1,78,63,1,1,0.565
9,"vonbastiaan_2015_evidence",31,"University students (Swiss)",32,1599402,40,6537,1,79,63,2,1,0.706
9,"vonbastiaan_2015_evidence",31,"University students (Swiss)",32,1599404,40,6537,1,81,63,2,1,0.504
9,"vonbastiaan_2015_evidence",31,"University students (Swiss)",32,1599406,40,6537,1,83,63,1,1,0.501
9,"vonbastiaan_2015_evidence",31,"University students (Swiss)",32,1599408,40,6537,1,85,63,1,1,0.535
9,"vonbastiaan_2015_evidence",31,"University students (Swiss)",32,1599409,40,6537,1,86,63,1,1,0.66
9,"vonbastiaan_2015_evidence",31,"University students (Swiss)",32,1599410,40,6537,1,87,63,1,1,0.572
9,"vonbastiaan_2015_evidence",31,"University students (Swiss)",32,1599412,40,6537,1,89,63,2,1,0.678
9,"vonbastiaan_2015_evidence",31,"University students (Swiss)",32,1599413,40,6537,1,90,63,2,1,0.462
9,"vonbastiaan_2015_evidence",31,"University students (Swiss)",32,1599414,40,6537,1,91,63,1,1,0.377
9,"vonbastiaan_2015_evidence",31,"University students (Swiss)",32,1599416,40,6537,1,93,63,1,1,0.496
9,"vonbastiaan_2015_evidence",31,"University students (Swiss)",32,1599420,40,6537,1,97,63,1,1,0.584
9,"vonbastiaan_2015_evidence",31,"University students (Swiss)",32,1599422,40,6537,1,99,63,2,1,0.534
9,"vonbastiaan_2015_evidence",31,"University students (Swiss)",32,1599423,40,6537,1,100,63,2,0,0.435
9,"vonbastiaan_2015_evidence",31,"University students (Swiss)",32,1599424,40,6537,1,101,63,1,1,1.084
9,"vonbastiaan_2015_evidence",31,"University students (Swiss)",32,1599425,40,6537,1,102,63,1,1,0.975
9,"vonbastiaan_2015_evidence",31,"University students (Swiss)",32,1599426,40,6537,1,103,63,2,1,0.599
9,"vonbastiaan_2015_evidence",31,"University students (Swiss)",32,1599427,40,6537,1,104,63,2,1,1.046
9,"vonbastiaan_2015_evidence",31,"University students (Swiss)",32,1599428,40,6537,1,105,63,2,1,0.639
9,"vonbastiaan_2015_evidence",31,"University students (Swiss)",32,1599430,40,6537,1,107,63,1,1,0.609
9,"vonbastiaan_2015_evidence",31,"University students (Swiss)",32,1599432,40,6537,1,109,63,2,1,0.694
9,"vonbastiaan_2015_evidence",31,"University students (Swiss)",32,1599433,40,6537,1,110,63,1,1,0.647
9,"vonbastiaan_2015_evidence",31,"University students (Swiss)",32,1599435,40,6537,1,112,63,1,1,0.438
9,"vonbastiaan_2015_evidence",31,"University students (Swiss)",32,1599438,40,6537,1,115,63,1,1,0.678
9,"vonbastiaan_2015_evidence",31,"University students (Swiss)",32,1599442,40,6537,1,119,63,2,1,0.72
9,"vonbastiaan_2015_evidence",31,"University students (Swiss)",32,1599443,40,6537,1,120,63,2,1,0.634
9,"vonbastiaan_2015_evidence",31,"University students (Swiss)",32,1599445,40,6537,1,122,63,2,1,0.599
9,"vonbastiaan_2015_evidence",31,"University students (Swiss)",32,1599446,40,6537,1,123,63,1,1,0.653
9,"vonbastiaan_2015_evidence",31,"University students (Swiss)",32,1599447,40,6537,1,124,63,2,1,0.637
9,"vonbastiaan_2015_evidence",31,"University students (Swiss)",32,1599450,40,6537,1,127,63,1,1,0.511
9,"vonbastiaan_2015_evidence",31,"University students (Swiss)",32,1599451,40,6537,1,128,63,1,1,0.579
9,"vonbastiaan_2015_evidence",31,"University students (Swiss)",32,1599452,40,6537,1,129,63,1,1,0.633
9,"vonbastiaan_2015_evidence",31,"University students (Swiss)",32,1599453,40,6537,1,130,63,1,1,0.512
9,"vonbastiaan_2015_evidence",31,"University students (Swiss)",32,1599454,40,6537,1,131,63,2,1,0.884
9,"vonbastiaan_2015_evidence",31,"University students (Swiss)",32,1599457,40,6537,1,134,63,2,1,0.83
9,"vonbastiaan_2015_evidence",31,"University students (Swiss)",32,1599458,40,6537,1,135,63,1,1,0.834
9,"vonbastiaan_2015_evidence",31,"University students (Swiss)",32,1599460,40,6537,1,137,63,2,1,0.74
9,"vonbastiaan_2015_evidence",31,"University students (Swiss)",32,1599463,40,6537,1,140,63,2,1,0.564
9,"vonbastiaan_2015_evidence",31,"University students (Swiss)",32,1599464,40,6537,1,141,63,2,1,0.986
9,"vonbastiaan_2015_evidence",31,"University students (Swiss)",32,1599465,40,6537,1,142,63,1,1,0.618
9,"vonbastiaan_2015_evidence",31,"University students (Swiss)",32,1599467,40,6537,1,144,63,1,1,0.426
9,"vonbastiaan_2015_evidence",31,"University students (Swiss)",32,1599471,40,6538,1,4,63,2,1,0.983
9,"vonbastiaan_2015_evidence",31,"University students (Swiss)",32,1599473,40,6538,1,6,63,2,1,0.554
9,"vonbastiaan_2015_evidence",31,"University students (Swiss)",32,1599474,40,6538,1,7,63,2,1,0.959
9,"vonbastiaan_2015_evidence",31,"University students (Swiss)",32,1599475,40,6538,1,8,63,2,1,1
9,"vonbastiaan_2015_evidence",31,"University students (Swiss)",32,1599476,40,6538,1,9,63,1,1,0.703
9,"vonbastiaan_2015_evidence",31,"University students (Swiss)",32,1599477,40,6538,1,10,63,2,1,0.967
9,"vonbastiaan_2015_evidence",31,"University students (Swiss)",32,1599479,40,6538,1,12,63,1,1,0.878
9,"vonbastiaan_2015_evidence",31,"University students (Swiss)",32,1599480,40,6538,1,13,63,1,1,0.66
9,"vonbastiaan_2015_evidence",31,"University students (Swiss)",32,1599482,40,6538,1,15,63,2,1,0.505
9,"vonbastiaan_2015_evidence",31,"University students (Swiss)",32,1599483,40,6538,1,16,63,1,1,0.925
9,"vonbastiaan_2015_evidence",31,"University students (Swiss)",32,1599484,40,6538,1,17,63,2,1,0.787
9,"vonbastiaan_2015_evidence",31,"University students (Swiss)",32,1599485,40,6538,1,18,63,1,1,0.678
9,"vonbastiaan_2015_evidence",31,"University students (Swiss)",32,1599486,40,6538,1,19,63,2,1,0.758
9,"vonbastiaan_2015_evidence",31,"University students (Swiss)",32,1599487,40,6538,1,20,63,1,1,0.705
9,"vonbastiaan_2015_evidence",31,"University students (Swiss)",32,1599488,40,6538,1,21,63,1,1,0.585
9,"vonbastiaan_2015_evidence",31,"University students (Swiss)",32,1599490,40,6538,1,23,63,1,1,0.715
9,"vonbastiaan_2015_evidence",31,"University students (Swiss)",32,1599491,40,6538,1,24,63,2,1,0.621
9,"vonbastiaan_2015_evidence",31,"University students (Swiss)",32,1599492,40,6538,1,25,63,1,1,0.611
9,"vonbastiaan_2015_evidence",31,"University students (Swiss)",32,1599493,40,6538,1,26,63,1,1,0.621
9,"vonbastiaan_2015_evidence",31,"University students (Swiss)",32,1599494,40,6538,1,27,63,1,1,0.608
9,"vonbastiaan_2015_evidence",31,"University students (Swiss)",32,1599495,40,6538,1,28,63,1,1,0.495
9,"vonbastiaan_2015_evidence",31,"University students (Swiss)",32,1599496,40,6538,1,29,63,2,1,0.483
9,"vonbastiaan_2015_evidence",31,"University students (Swiss)",32,1599499,40,6538,1,32,63,2,1,1.248
9,"vonbastiaan_2015_evidence",31,"University students (Swiss)",32,1599500,40,6538,1,33,63,1,1,0.743
9,"vonbastiaan_2015_evidence",31,"University students (Swiss)",32,1599502,40,6538,1,35,63,1,1,0.69
9,"vonbastiaan_2015_evidence",31,"University students (Swiss)",32,1599503,40,6538,1,36,63,1,1,0.514
9,"vonbastiaan_2015_evidence",31,"University students (Swiss)",32,1599505,40,6538,1,38,63,2,1,0.653
9,"vonbastiaan_2015_evidence",31,"University students (Swiss)",32,1599506,40,6538,1,39,63,1,1,0.58
9,"vonbastiaan_2015_evidence",31,"University students (Swiss)",32,1599507,40,6538,1,40,63,2,0,0.578
9,"vonbastiaan_2015_evidence",31,"University students (Swiss)",32,1599508,40,6538,1,41,63,2,1,1.176
9,"vonbastiaan_2015_evidence",31,"University students (Swiss)",32,1599509,40,6538,1,42,63,2,1,0.637
9,"vonbastiaan_2015_evidence",31,"University students (Swiss)",32,1599510,40,6538,1,43,63,1,1,0.588
9,"vonbastiaan_2015_evidence",31,"University students (Swiss)",32,1599511,40,6538,1,44,63,2,1,0.89
9,"vonbastiaan_2015_evidence",31,"University students (Swiss)",32,1599512,40,6538,1,45,63,2,1,0.672
9,"vonbastiaan_2015_evidence",31,"University students (Swiss)",32,1599514,40,6538,1,47,63,1,1,0.642
9,"vonbastiaan_2015_evidence",31,"University students (Swiss)",32,1599515,40,6538,1,48,63,2,1,0.561
9,"vonbastiaan_2015_evidence",31,"University students (Swiss)",32,1599518,40,6538,1,51,63,1,1,0.459
9,"vonbastiaan_2015_evidence",31,"University students (Swiss)",32,1599519,40,6538,1,52,63,2,1,0.477
9,"vonbastiaan_2015_evidence",31,"University students (Swiss)",32,1599521,40,6538,1,54,63,2,1,0.744
9,"vonbastiaan_2015_evidence",31,"University students (Swiss)",32,1599523,40,6538,1,56,63,2,1,0.693
9,"vonbastiaan_2015_evidence",31,"University students (Swiss)",32,1599524,40,6538,1,57,63,2,1,0.509
9,"vonbastiaan_2015_evidence",31,"University students (Swiss)",32,1599525,40,6538,1,58,63,1,1,0.713
9,"vonbastiaan_2015_evidence",31,"University students (Swiss)",32,1599526,40,6538,1,59,63,2,1,0.57
9,"vonbastiaan_2015_evidence",31,"University students (Swiss)",32,1599527,40,6538,1,60,63,1,1,0.856
9,"vonbastiaan_2015_evidence",31,"University students (Swiss)",32,1599529,40,6538,1,62,63,2,1,0.969
9,"vonbastiaan_2015_evidence",31,"University students (Swiss)",32,1599530,40,6538,1,63,63,2,1,0.753
9,"vonbastiaan_2015_evidence",31,"University students (Swiss)",32,1599531,40,6538,1,64,63,1,1,0.675
9,"vonbastiaan_2015_evidence",31,"University students (Swiss)",32,1599532,40,6538,1,65,63,2,1,0.523
9,"vonbastiaan_2015_evidence",31,"University students (Swiss)",32,1599533,40,6538,1,66,63,2,1,0.783
9,"vonbastiaan_2015_evidence",31,"University students (Swiss)",32,1599534,40,6538,1,67,63,2,1,0.49
9,"vonbastiaan_2015_evidence",31,"University students (Swiss)",32,1599535,40,6538,1,68,63,1,1,0.485
9,"vonbastiaan_2015_evidence",31,"University students (Swiss)",32,1599536,40,6538,1,69,63,1,1,0.808
9,"vonbastiaan_2015_evidence",31,"University students (Swiss)",32,1599540,40,6538,1,73,63,2,1,0.583
9,"vonbastiaan_2015_evidence",31,"University students (Swiss)",32,1599543,40,6538,1,76,63,1,1,0.477
9,"vonbastiaan_2015_evidence",31,"University students (Swiss)",32,1599544,40,6538,1,77,63,1,1,0.48
9,"vonbastiaan_2015_evidence",31,"University students (Swiss)",32,1599545,40,6538,1,78,63,1,1,0.555
9,"vonbastiaan_2015_evidence",31,"University students (Swiss)",32,1599546,40,6538,1,79,63,2,1,0.456
9,"vonbastiaan_2015_evidence",31,"University students (Swiss)",32,1599548,40,6538,1,81,63,2,1,0.448
9,"vonbastiaan_2015_evidence",31,"University students (Swiss)",32,1599550,40,6538,1,83,63,1,1,0.634
9,"vonbastiaan_2015_evidence",31,"University students (Swiss)",32,1599552,40,6538,1,85,63,1,1,0.466
9,"vonbastiaan_2015_evidence",31,"University students (Swiss)",32,1599553,40,6538,1,86,63,1,1,0.533
9,"vonbastiaan_2015_evidence",31,"University students (Swiss)",32,1599554,40,6538,1,87,63,1,1,0.561
9,"vonbastiaan_2015_evidence",31,"University students (Swiss)",32,1599556,40,6538,1,89,63,2,0,0.597
9,"vonbastiaan_2015_evidence",31,"University students (Swiss)",32,1599557,40,6538,1,90,63,2,1,1.331
9,"vonbastiaan_2015_evidence",31,"University students (Swiss)",32,1599558,40,6538,1,91,63,1,1,0.404
9,"vonbastiaan_2015_evidence",31,"University students (Swiss)",32,1599560,40,6538,1,93,63,1,0,0.378
9,"vonbastiaan_2015_evidence",31,"University students (Swiss)",32,1599564,40,6538,1,97,63,1,1,0.804
9,"vonbastiaan_2015_evidence",31,"University students (Swiss)",32,1599566,40,6538,1,99,63,2,1,0.525
9,"vonbastiaan_2015_evidence",31,"University students (Swiss)",32,1599567,40,6538,1,100,63,2,0,0.438
9,"vonbastiaan_2015_evidence",31,"University students (Swiss)",32,1599568,40,6538,1,101,63,1,0,0.496
9,"vonbastiaan_2015_evidence",31,"University students (Swiss)",32,1599569,40,6538,1,102,63,1,1,0.459
9,"vonbastiaan_2015_evidence",31,"University students (Swiss)",32,1599570,40,6538,1,103,63,2,1,1.006
9,"vonbastiaan_2015_evidence",31,"University students (Swiss)",32,1599571,40,6538,1,104,63,2,1,1.046
9,"vonbastiaan_2015_evidence",31,"University students (Swiss)",32,1599572,40,6538,1,105,63,2,0,0.832
9,"vonbastiaan_2015_evidence",31,"University students (Swiss)",32,1599574,40,6538,1,107,63,1,1,0.568
9,"vonbastiaan_2015_evidence",31,"University students (Swiss)",32,1599576,40,6538,1,109,63,2,1,0.452
9,"vonbastiaan_2015_evidence",31,"University students (Swiss)",32,1599577,40,6538,1,110,63,1,1,0.998
9,"vonbastiaan_2015_evidence",31,"University students (Swiss)",32,1599579,40,6538,1,112,63,1,1,0.515
9,"vonbastiaan_2015_evidence",31,"University students (Swiss)",32,1599582,40,6538,1,115,63,1,1,0.643
9,"vonbastiaan_2015_evidence",31,"University students (Swiss)",32,1599586,40,6538,1,119,63,2,1,1.04
9,"vonbastiaan_2015_evidence",31,"University students (Swiss)",32,1599587,40,6538,1,120,63,2,1,0.665
9,"vonbastiaan_2015_evidence",31,"University students (Swiss)",32,1599589,40,6538,1,122,63,2,0,0.51
9,"vonbastiaan_2015_evidence",31,"University students (Swiss)",32,1599590,40,6538,1,123,63,1,1,0.546
9,"vonbastiaan_2015_evidence",31,"University students (Swiss)",32,1599591,40,6538,1,124,63,2,1,0.535
9,"vonbastiaan_2015_evidence",31,"University students (Swiss)",32,1599594,40,6538,1,127,63,1,1,0.483
9,"vonbastiaan_2015_evidence",31,"University students (Swiss)",32,1599595,40,6538,1,128,63,1,1,0.831
9,"vonbastiaan_2015_evidence",31,"University students (Swiss)",32,1599596,40,6538,1,129,63,1,1,0.851
9,"vonbastiaan_2015_evidence",31,"University students (Swiss)",32,1599597,40,6538,1,130,63,1,1,0.6
9,"vonbastiaan_2015_evidence",31,"University students (Swiss)",32,1599598,40,6538,1,131,63,2,1,0.854
9,"vonbastiaan_2015_evidence",31,"University students (Swiss)",32,1599601,40,6538,1,134,63,2,1,0.828
9,"vonbastiaan_2015_evidence",31,"University students (Swiss)",32,1599602,40,6538,1,135,63,1,1,1.076
9,"vonbastiaan_2015_evidence",31,"University students (Swiss)",32,1599604,40,6538,1,137,63,2,1,0.785
9,"vonbastiaan_2015_evidence",31,"University students (Swiss)",32,1599607,40,6538,1,140,63,2,1,1.008
9,"vonbastiaan_2015_evidence",31,"University students (Swiss)",32,1599608,40,6538,1,141,63,2,1,0.537
9,"vonbastiaan_2015_evidence",31,"University students (Swiss)",32,1599609,40,6538,1,142,63,1,1,0.374
9,"vonbastiaan_2015_evidence",31,"University students (Swiss)",32,1599611,40,6538,1,144,63,1,1,0.386
9,"vonbastiaan_2015_evidence",31,"University students (Swiss)",32,1599615,40,6539,1,4,63,2,1,0.815
9,"vonbastiaan_2015_evidence",31,"University students (Swiss)",32,1599617,40,6539,1,6,63,2,1,0.512
9,"vonbastiaan_2015_evidence",31,"University students (Swiss)",32,1599618,40,6539,1,7,63,2,1,1.036
9,"vonbastiaan_2015_evidence",31,"University students (Swiss)",32,1599619,40,6539,1,8,63,2,1,0.622
9,"vonbastiaan_2015_evidence",31,"University students (Swiss)",32,1599620,40,6539,1,9,63,1,1,0.829
9,"vonbastiaan_2015_evidence",31,"University students (Swiss)",32,1599621,40,6539,1,10,63,2,1,0.802
9,"vonbastiaan_2015_evidence",31,"University students (Swiss)",32,1599623,40,6539,1,12,63,1,1,0.988
9,"vonbastiaan_2015_evidence",31,"University students (Swiss)",32,1599624,40,6539,1,13,63,1,1,0.821
9,"vonbastiaan_2015_evidence",31,"University students (Swiss)",32,1599626,40,6539,1,15,63,2,1,0.546
9,"vonbastiaan_2015_evidence",31,"University students (Swiss)",32,1599627,40,6539,1,16,63,1,1,0.631
9,"vonbastiaan_2015_evidence",31,"University students (Swiss)",32,1599628,40,6539,1,17,63,2,0,0.79
9,"vonbastiaan_2015_evidence",31,"University students (Swiss)",32,1599629,40,6539,1,18,63,1,1,1.257
9,"vonbastiaan_2015_evidence",31,"University students (Swiss)",32,1599630,40,6539,1,19,63,2,1,0.928
9,"vonbastiaan_2015_evidence",31,"University students (Swiss)",32,1599631,40,6539,1,20,63,1,1,0.799
9,"vonbastiaan_2015_evidence",31,"University students (Swiss)",32,1599632,40,6539,1,21,63,1,1,0.675
9,"vonbastiaan_2015_evidence",31,"University students (Swiss)",32,1599634,40,6539,1,23,63,1,1,0.707
9,"vonbastiaan_2015_evidence",31,"University students (Swiss)",32,1599635,40,6539,1,24,63,2,1,0.82
9,"vonbastiaan_2015_evidence",31,"University students (Swiss)",32,1599636,40,6539,1,25,63,1,1,0.601
9,"vonbastiaan_2015_evidence",31,"University students (Swiss)",32,1599637,40,6539,1,26,63,1,1,0.655
9,"vonbastiaan_2015_evidence",31,"University students (Swiss)",32,1599638,40,6539,1,27,63,1,1,0.535
9,"vonbastiaan_2015_evidence",31,"University students (Swiss)",32,1599639,40,6539,1,28,63,1,1,0.956
9,"vonbastiaan_2015_evidence",31,"University students (Swiss)",32,1599640,40,6539,1,29,63,2,1,0.643
9,"vonbastiaan_2015_evidence",31,"University students (Swiss)",32,1599643,40,6539,1,32,63,2,1,0.618
9,"vonbastiaan_2015_evidence",31,"University students (Swiss)",32,1599644,40,6539,1,33,63,1,1,0.873
9,"vonbastiaan_2015_evidence",31,"University students (Swiss)",32,1599646,40,6539,1,35,63,1,1,0.949
9,"vonbastiaan_2015_evidence",31,"University students (Swiss)",32,1599647,40,6539,1,36,63,1,1,0.982
9,"vonbastiaan_2015_evidence",31,"University students (Swiss)",32,1599649,40,6539,1,38,63,2,1,0.72
9,"vonbastiaan_2015_evidence",31,"University students (Swiss)",32,1599650,40,6539,1,39,63,1,1,0.577
9,"vonbastiaan_2015_evidence",31,"University students (Swiss)",32,1599651,40,6539,1,40,63,2,1,0.759
9,"vonbastiaan_2015_evidence",31,"University students (Swiss)",32,1599652,40,6539,1,41,63,2,1,1.217
9,"vonbastiaan_2015_evidence",31,"University students (Swiss)",32,1599653,40,6539,1,42,63,2,1,0.8
9,"vonbastiaan_2015_evidence",31,"University students (Swiss)",32,1599654,40,6539,1,43,63,1,1,0.788
9,"vonbastiaan_2015_evidence",31,"University students (Swiss)",32,1599655,40,6539,1,44,63,2,1,0.607
9,"vonbastiaan_2015_evidence",31,"University students (Swiss)",32,1599656,40,6539,1,45,63,2,1,0.782
9,"vonbastiaan_2015_evidence",31,"University students (Swiss)",32,1599658,40,6539,1,47,63,1,1,0.673
9,"vonbastiaan_2015_evidence",31,"University students (Swiss)",32,1599659,40,6539,1,48,63,2,1,1.209
9,"vonbastiaan_2015_evidence",31,"University students (Swiss)",32,1599662,40,6539,1,51,63,1,1,1.099
9,"vonbastiaan_2015_evidence",31,"University students (Swiss)",32,1599663,40,6539,1,52,63,2,1,0.558
9,"vonbastiaan_2015_evidence",31,"University students (Swiss)",32,1599665,40,6539,1,54,63,2,1,0.662
9,"vonbastiaan_2015_evidence",31,"University students (Swiss)",32,1599667,40,6539,1,56,63,2,1,0.589
9,"vonbastiaan_2015_evidence",31,"University students (Swiss)",32,1599668,40,6539,1,57,63,2,1,0.795
9,"vonbastiaan_2015_evidence",31,"University students (Swiss)",32,1599669,40,6539,1,58,63,1,1,0.638
9,"vonbastiaan_2015_evidence",31,"University students (Swiss)",32,1599670,40,6539,1,59,63,2,1,0.758
9,"vonbastiaan_2015_evidence",31,"University students (Swiss)",32,1599671,40,6539,1,60,63,1,1,0.664
9,"vonbastiaan_2015_evidence",31,"University students (Swiss)",32,1599673,40,6539,1,62,63,2,1,0.932
9,"vonbastiaan_2015_evidence",31,"University students (Swiss)",32,1599674,40,6539,1,63,63,2,1,0.635
9,"vonbastiaan_2015_evidence",31,"University students (Swiss)",32,1599675,40,6539,1,64,63,1,1,0.602
9,"vonbastiaan_2015_evidence",31,"University students (Swiss)",32,1599676,40,6539,1,65,63,2,1,0.672
9,"vonbastiaan_2015_evidence",31,"University students (Swiss)",32,1599677,40,6539,1,66,63,2,1,0.649
9,"vonbastiaan_2015_evidence",31,"University students (Swiss)",32,1599678,40,6539,1,67,63,2,1,0.6
9,"vonbastiaan_2015_evidence",31,"University students (Swiss)",32,1599679,40,6539,1,68,63,1,1,0.647
9,"vonbastiaan_2015_evidence",31,"University students (Swiss)",32,1599680,40,6539,1,69,63,1,1,0.71
9,"vonbastiaan_2015_evidence",31,"University students (Swiss)",32,1599684,40,6539,1,73,63,2,1,0.652
9,"vonbastiaan_2015_evidence",31,"University students (Swiss)",32,1599687,40,6539,1,76,63,1,1,0.583
9,"vonbastiaan_2015_evidence",31,"University students (Swiss)",32,1599688,40,6539,1,77,63,1,1,0.63
9,"vonbastiaan_2015_evidence",31,"University students (Swiss)",32,1599689,40,6539,1,78,63,1,1,1.021
9,"vonbastiaan_2015_evidence",31,"University students (Swiss)",32,1599690,40,6539,1,79,63,2,1,0.502
9,"vonbastiaan_2015_evidence",31,"University students (Swiss)",32,1599692,40,6539,1,81,63,2,1,0.695
9,"vonbastiaan_2015_evidence",31,"University students (Swiss)",32,1599694,40,6539,1,83,63,1,1,0.557
9,"vonbastiaan_2015_evidence",31,"University students (Swiss)",32,1599696,40,6539,1,85,63,1,1,0.568
9,"vonbastiaan_2015_evidence",31,"University students (Swiss)",32,1599697,40,6539,1,86,63,1,1,0.998
9,"vonbastiaan_2015_evidence",31,"University students (Swiss)",32,1599698,40,6539,1,87,63,1,1,0.622
9,"vonbastiaan_2015_evidence",31,"University students (Swiss)",32,1599700,40,6539,1,89,63,2,1,0.921
9,"vonbastiaan_2015_evidence",31,"University students (Swiss)",32,1599701,40,6539,1,90,63,2,1,0.544
9,"vonbastiaan_2015_evidence",31,"University students (Swiss)",32,1599702,40,6539,1,91,63,1,1,0.517
9,"vonbastiaan_2015_evidence",31,"University students (Swiss)",32,1599704,40,6539,1,93,63,1,1,0.592
9,"vonbastiaan_2015_evidence",31,"University students (Swiss)",32,1599708,40,6539,1,97,63,1,1,0.753
9,"vonbastiaan_2015_evidence",31,"University students (Swiss)",32,1599710,40,6539,1,99,63,2,1,0.664
9,"vonbastiaan_2015_evidence",31,"University students (Swiss)",32,1599711,40,6539,1,100,63,2,1,1.416
9,"vonbastiaan_2015_evidence",31,"University students (Swiss)",32,1599712,40,6539,1,101,63,1,1,0.499
9,"vonbastiaan_2015_evidence",31,"University students (Swiss)",32,1599713,40,6539,1,102,63,1,1,0.703
9,"vonbastiaan_2015_evidence",31,"University students (Swiss)",32,1599714,40,6539,1,103,63,2,1,1.205
9,"vonbastiaan_2015_evidence",31,"University students (Swiss)",32,1599715,40,6539,1,104,63,2,1,0.527
9,"vonbastiaan_2015_evidence",31,"University students (Swiss)",32,1599716,40,6539,1,105,63,2,1,0.459
9,"vonbastiaan_2015_evidence",31,"University students (Swiss)",32,1599718,40,6539,1,107,63,1,1,0.513
9,"vonbastiaan_2015_evidence",31,"University students (Swiss)",32,1599720,40,6539,1,109,63,2,1,0.445
9,"vonbastiaan_2015_evidence",31,"University students (Swiss)",32,1599721,40,6539,1,110,63,1,1,1.231
9,"vonbastiaan_2015_evidence",31,"University students (Swiss)",32,1599723,40,6539,1,112,63,1,1,0.542
9,"vonbastiaan_2015_evidence",31,"University students (Swiss)",32,1599726,40,6539,1,115,63,1,1,0.762
9,"vonbastiaan_2015_evidence",31,"University students (Swiss)",32,1599730,40,6539,1,119,63,2,1,0.55
9,"vonbastiaan_2015_evidence",31,"University students (Swiss)",32,1599731,40,6539,1,120,63,2,1,1.067
9,"vonbastiaan_2015_evidence",31,"University students (Swiss)",32,1599733,40,6539,1,122,63,2,1,0.56
9,"vonbastiaan_2015_evidence",31,"University students (Swiss)",32,1599734,40,6539,1,123,63,1,1,0.462
9,"vonbastiaan_2015_evidence",31,"University students (Swiss)",32,1599735,40,6539,1,124,63,2,1,0.433
9,"vonbastiaan_2015_evidence",31,"University students (Swiss)",32,1599738,40,6539,1,127,63,1,1,0.492
9,"vonbastiaan_2015_evidence",31,"University students (Swiss)",32,1599739,40,6539,1,128,63,1,1,0.559
9,"vonbastiaan_2015_evidence",31,"University students (Swiss)",32,1599740,40,6539,1,129,63,1,1,0.493
9,"vonbastiaan_2015_evidence",31,"University students (Swiss)",32,1599741,40,6539,1,130,63,1,1,0.593
9,"vonbastiaan_2015_evidence",31,"University students (Swiss)",32,1599742,40,6539,1,131,63,2,1,1.263
9,"vonbastiaan_2015_evidence",31,"University students (Swiss)",32,1599745,40,6539,1,134,63,2,1,0.557
9,"vonbastiaan_2015_evidence",31,"University students (Swiss)",32,1599746,40,6539,1,135,63,1,1,1.09
9,"vonbastiaan_2015_evidence",31,"University students (Swiss)",32,1599748,40,6539,1,137,63,2,1,0.586
9,"vonbastiaan_2015_evidence",31,"University students (Swiss)",32,1599751,40,6539,1,140,63,2,1,0.853
9,"vonbastiaan_2015_evidence",31,"University students (Swiss)",32,1599752,40,6539,1,141,63,2,1,0.506
9,"vonbastiaan_2015_evidence",31,"University students (Swiss)",32,1599753,40,6539,1,142,63,1,1,0.526
9,"vonbastiaan_2015_evidence",31,"University students (Swiss)",32,1599755,40,6539,1,144,63,1,1,0.456
9,"vonbastiaan_2015_evidence",31,"University students (Swiss)",32,1599759,40,6540,1,4,63,2,1,0.918
9,"vonbastiaan_2015_evidence",31,"University students (Swiss)",32,1599761,40,6540,1,6,63,2,1,0.642
9,"vonbastiaan_2015_evidence",31,"University students (Swiss)",32,1599762,40,6540,1,7,63,2,1,0.858
9,"vonbastiaan_2015_evidence",31,"University students (Swiss)",32,1599763,40,6540,1,8,63,2,1,1.246
9,"vonbastiaan_2015_evidence",31,"University students (Swiss)",32,1599764,40,6540,1,9,63,1,1,1.221
9,"vonbastiaan_2015_evidence",31,"University students (Swiss)",32,1599765,40,6540,1,10,63,2,1,1.155
9,"vonbastiaan_2015_evidence",31,"University students (Swiss)",32,1599767,40,6540,1,12,63,1,1,1.561
9,"vonbastiaan_2015_evidence",31,"University students (Swiss)",32,1599768,40,6540,1,13,63,1,1,1.688
9,"vonbastiaan_2015_evidence",31,"University students (Swiss)",32,1599770,40,6540,1,15,63,2,1,0.527
9,"vonbastiaan_2015_evidence",31,"University students (Swiss)",32,1599771,40,6540,1,16,63,1,1,0.604
9,"vonbastiaan_2015_evidence",31,"University students (Swiss)",32,1599772,40,6540,1,17,63,2,1,0.666
9,"vonbastiaan_2015_evidence",31,"University students (Swiss)",32,1599773,40,6540,1,18,63,1,1,0.61
9,"vonbastiaan_2015_evidence",31,"University students (Swiss)",32,1599774,40,6540,1,19,63,2,1,0.721
9,"vonbastiaan_2015_evidence",31,"University students (Swiss)",32,1599775,40,6540,1,20,63,1,1,0.61
9,"vonbastiaan_2015_evidence",31,"University students (Swiss)",32,1599776,40,6540,1,21,63,1,1,0.504
9,"vonbastiaan_2015_evidence",31,"University students (Swiss)",32,1599778,40,6540,1,23,63,1,1,0.504
9,"vonbastiaan_2015_evidence",31,"University students (Swiss)",32,1599779,40,6540,1,24,63,2,1,0.644
9,"vonbastiaan_2015_evidence",31,"University students (Swiss)",32,1599780,40,6540,1,25,63,1,1,0.635
9,"vonbastiaan_2015_evidence",31,"University students (Swiss)",32,1599781,40,6540,1,26,63,1,1,0.442
9,"vonbastiaan_2015_evidence",31,"University students (Swiss)",32,1599782,40,6540,1,27,63,1,1,0.413
9,"vonbastiaan_2015_evidence",31,"University students (Swiss)",32,1599783,40,6540,1,28,63,1,1,0.462
9,"vonbastiaan_2015_evidence",31,"University students (Swiss)",32,1599784,40,6540,1,29,63,2,1,0.537
9,"vonbastiaan_2015_evidence",31,"University students (Swiss)",32,1599787,40,6540,1,32,63,2,1,0.805
9,"vonbastiaan_2015_evidence",31,"University students (Swiss)",32,1599788,40,6540,1,33,63,1,1,0.784
9,"vonbastiaan_2015_evidence",31,"University students (Swiss)",32,1599790,40,6540,1,35,63,1,1,0.702
9,"vonbastiaan_2015_evidence",31,"University students (Swiss)",32,1599791,40,6540,1,36,63,1,1,0.607
9,"vonbastiaan_2015_evidence",31,"University students (Swiss)",32,1599793,40,6540,1,38,63,2,0,0.526
9,"vonbastiaan_2015_evidence",31,"University students (Swiss)",32,1599794,40,6540,1,39,63,1,1,0.531
9,"vonbastiaan_2015_evidence",31,"University students (Swiss)",32,1599795,40,6540,1,40,63,2,1,0.495
9,"vonbastiaan_2015_evidence",31,"University students (Swiss)",32,1599796,40,6540,1,41,63,2,1,0.731
9,"vonbastiaan_2015_evidence",31,"University students (Swiss)",32,1599797,40,6540,1,42,63,2,1,0.492
9,"vonbastiaan_2015_evidence",31,"University students (Swiss)",32,1599798,40,6540,1,43,63,1,1,0.496
9,"vonbastiaan_2015_evidence",31,"University students (Swiss)",32,1599799,40,6540,1,44,63,2,1,0.484
9,"vonbastiaan_2015_evidence",31,"University students (Swiss)",32,1599800,40,6540,1,45,63,2,1,0.507
9,"vonbastiaan_2015_evidence",31,"University students (Swiss)",32,1599802,40,6540,1,47,63,1,0,0.653
9,"vonbastiaan_2015_evidence",31,"University students (Swiss)",32,1599803,40,6540,1,48,63,2,1,1.06
9,"vonbastiaan_2015_evidence",31,"University students (Swiss)",32,1599806,40,6540,1,51,63,1,1,0.674
9,"vonbastiaan_2015_evidence",31,"University students (Swiss)",32,1599807,40,6540,1,52,63,2,1,0.562
9,"vonbastiaan_2015_evidence",31,"University students (Swiss)",32,1599809,40,6540,1,54,63,2,1,1.907
9,"vonbastiaan_2015_evidence",31,"University students (Swiss)",32,1599811,40,6540,1,56,63,2,1,0.757
9,"vonbastiaan_2015_evidence",31,"University students (Swiss)",32,1599812,40,6540,1,57,63,2,1,0.984
9,"vonbastiaan_2015_evidence",31,"University students (Swiss)",32,1599813,40,6540,1,58,63,1,1,0.783
9,"vonbastiaan_2015_evidence",31,"University students (Swiss)",32,1599814,40,6540,1,59,63,2,1,0.578
9,"vonbastiaan_2015_evidence",31,"University students (Swiss)",32,1599815,40,6540,1,60,63,1,1,0.496
9,"vonbastiaan_2015_evidence",31,"University students (Swiss)",32,1599817,40,6540,1,62,63,2,0,0.553
9,"vonbastiaan_2015_evidence",31,"University students (Swiss)",32,1599818,40,6540,1,63,63,2,1,0.597
9,"vonbastiaan_2015_evidence",31,"University students (Swiss)",32,1599819,40,6540,1,64,63,1,1,0.508
9,"vonbastiaan_2015_evidence",31,"University students (Swiss)",32,1599820,40,6540,1,65,63,2,1,0.464
9,"vonbastiaan_2015_evidence",31,"University students (Swiss)",32,1599821,40,6540,1,66,63,2,1,0.539
9,"vonbastiaan_2015_evidence",31,"University students (Swiss)",32,1599822,40,6540,1,67,63,2,1,0.816
9,"vonbastiaan_2015_evidence",31,"University students (Swiss)",32,1599823,40,6540,1,68,63,1,1,0.596
9,"vonbastiaan_2015_evidence",31,"University students (Swiss)",32,1599824,40,6540,1,69,63,1,1,0.529
9,"vonbastiaan_2015_evidence",31,"University students (Swiss)",32,1599828,40,6540,1,73,63,2,1,0.636
9,"vonbastiaan_2015_evidence",31,"University students (Swiss)",32,1599831,40,6540,1,76,63,1,1,0.514
9,"vonbastiaan_2015_evidence",31,"University students (Swiss)",32,1599832,40,6540,1,77,63,1,1,0.518
9,"vonbastiaan_2015_evidence",31,"University students (Swiss)",32,1599833,40,6540,1,78,63,1,1,0.85
9,"vonbastiaan_2015_evidence",31,"University students (Swiss)",32,1599834,40,6540,1,79,63,2,1,0.535
9,"vonbastiaan_2015_evidence",31,"University students (Swiss)",32,1599836,40,6540,1,81,63,2,1,0.55
9,"vonbastiaan_2015_evidence",31,"University students (Swiss)",32,1599838,40,6540,1,83,63,1,1,0.479
9,"vonbastiaan_2015_evidence",31,"University students (Swiss)",32,1599840,40,6540,1,85,63,1,1,0.479
9,"vonbastiaan_2015_evidence",31,"University students (Swiss)",32,1599841,40,6540,1,86,63,1,1,0.505
9,"vonbastiaan_2015_evidence",31,"University students (Swiss)",32,1599842,40,6540,1,87,63,1,1,1.309
9,"vonbastiaan_2015_evidence",31,"University students (Swiss)",32,1599844,40,6540,1,89,63,2,1,0.791
9,"vonbastiaan_2015_evidence",31,"University students (Swiss)",32,1599845,40,6540,1,90,63,2,1,0.49
9,"vonbastiaan_2015_evidence",31,"University students (Swiss)",32,1599846,40,6540,1,91,63,1,1,0.454
9,"vonbastiaan_2015_evidence",31,"University students (Swiss)",32,1599848,40,6540,1,93,63,1,1,0.502
9,"vonbastiaan_2015_evidence",31,"University students (Swiss)",32,1599852,40,6540,1,97,63,1,1,1.395
9,"vonbastiaan_2015_evidence",31,"University students (Swiss)",32,1599854,40,6540,1,99,63,2,1,0.511
9,"vonbastiaan_2015_evidence",31,"University students (Swiss)",32,1599855,40,6540,1,100,63,2,1,0.675
9,"vonbastiaan_2015_evidence",31,"University students (Swiss)",32,1599856,40,6540,1,101,63,1,1,0.524
9,"vonbastiaan_2015_evidence",31,"University students (Swiss)",32,1599857,40,6540,1,102,63,1,1,0.6
9,"vonbastiaan_2015_evidence",31,"University students (Swiss)",32,1599858,40,6540,1,103,63,2,1,1.414
9,"vonbastiaan_2015_evidence",31,"University students (Swiss)",32,1599859,40,6540,1,104,63,2,1,0.633
9,"vonbastiaan_2015_evidence",31,"University students (Swiss)",32,1599860,40,6540,1,105,63,2,1,0.545
9,"vonbastiaan_2015_evidence",31,"University students (Swiss)",32,1599862,40,6540,1,107,63,1,1,0.415
9,"vonbastiaan_2015_evidence",31,"University students (Swiss)",32,1599864,40,6540,1,109,63,2,1,0.435
9,"vonbastiaan_2015_evidence",31,"University students (Swiss)",32,1599865,40,6540,1,110,63,1,1,0.757
9,"vonbastiaan_2015_evidence",31,"University students (Swiss)",32,1599867,40,6540,1,112,63,1,1,0.475
9,"vonbastiaan_2015_evidence",31,"University students (Swiss)",32,1599870,40,6540,1,115,63,1,1,0.542
9,"vonbastiaan_2015_evidence",31,"University students (Swiss)",32,1599874,40,6540,1,119,63,2,1,0.549
9,"vonbastiaan_2015_evidence",31,"University students (Swiss)",32,1599875,40,6540,1,120,63,2,1,0.634
9,"vonbastiaan_2015_evidence",31,"University students (Swiss)",32,1599877,40,6540,1,122,63,2,1,0.63
9,"vonbastiaan_2015_evidence",31,"University students (Swiss)",32,1599878,40,6540,1,123,63,1,1,0.484
9,"vonbastiaan_2015_evidence",31,"University students (Swiss)",32,1599879,40,6540,1,124,63,2,1,0.431
9,"vonbastiaan_2015_evidence",31,"University students (Swiss)",32,1599882,40,6540,1,127,63,1,1,0.441
9,"vonbastiaan_2015_evidence",31,"University students (Swiss)",32,1599883,40,6540,1,128,63,1,0,0.475
9,"vonbastiaan_2015_evidence",31,"University students (Swiss)",32,1599884,40,6540,1,129,63,1,1,0.55
9,"vonbastiaan_2015_evidence",31,"University students (Swiss)",32,1599885,40,6540,1,130,63,1,1,0.507
9,"vonbastiaan_2015_evidence",31,"University students (Swiss)",32,1599886,40,6540,1,131,63,2,1,0.71
9,"vonbastiaan_2015_evidence",31,"University students (Swiss)",32,1599889,40,6540,1,134,63,2,1,0.449
9,"vonbastiaan_2015_evidence",31,"University students (Swiss)",32,1599890,40,6540,1,135,63,1,1,0.524
9,"vonbastiaan_2015_evidence",31,"University students (Swiss)",32,1599892,40,6540,1,137,63,2,1,0.619
9,"vonbastiaan_2015_evidence",31,"University students (Swiss)",32,1599895,40,6540,1,140,63,2,1,0.562
9,"vonbastiaan_2015_evidence",31,"University students (Swiss)",32,1599896,40,6540,1,141,63,2,1,0.703
9,"vonbastiaan_2015_evidence",31,"University students (Swiss)",32,1599897,40,6540,1,142,63,1,1,0.592
9,"vonbastiaan_2015_evidence",31,"University students (Swiss)",32,1599899,40,6540,1,144,63,1,1,0.581
9,"vonbastiaan_2015_evidence",31,"University students (Swiss)",32,1599903,40,6541,1,4,63,2,1,0.841
9,"vonbastiaan_2015_evidence",31,"University students (Swiss)",32,1599905,40,6541,1,6,63,2,1,0.711
9,"vonbastiaan_2015_evidence",31,"University students (Swiss)",32,1599906,40,6541,1,7,63,2,1,0.792
9,"vonbastiaan_2015_evidence",31,"University students (Swiss)",32,1599907,40,6541,1,8,63,2,1,0.747
9,"vonbastiaan_2015_evidence",31,"University students (Swiss)",32,1599908,40,6541,1,9,63,1,1,1.157
9,"vonbastiaan_2015_evidence",31,"University students (Swiss)",32,1599909,40,6541,1,10,63,2,1,0.85
9,"vonbastiaan_2015_evidence",31,"University students (Swiss)",32,1599911,40,6541,1,12,63,1,1,0.691
9,"vonbastiaan_2015_evidence",31,"University students (Swiss)",32,1599912,40,6541,1,13,63,1,1,0.756
9,"vonbastiaan_2015_evidence",31,"University students (Swiss)",32,1599914,40,6541,1,15,63,2,1,0.816
9,"vonbastiaan_2015_evidence",31,"University students (Swiss)",32,1599915,40,6541,1,16,63,1,1,0.731
9,"vonbastiaan_2015_evidence",31,"University students (Swiss)",32,1599916,40,6541,1,17,63,2,1,0.798
9,"vonbastiaan_2015_evidence",31,"University students (Swiss)",32,1599917,40,6541,1,18,63,1,1,0.721
9,"vonbastiaan_2015_evidence",31,"University students (Swiss)",32,1599918,40,6541,1,19,63,2,1,0.899
9,"vonbastiaan_2015_evidence",31,"University students (Swiss)",32,1599919,40,6541,1,20,63,1,1,0.681
9,"vonbastiaan_2015_evidence",31,"University students (Swiss)",32,1599920,40,6541,1,21,63,1,1,0.689
9,"vonbastiaan_2015_evidence",31,"University students (Swiss)",32,1599922,40,6541,1,23,63,1,1,0.66
9,"vonbastiaan_2015_evidence",31,"University students (Swiss)",32,1599923,40,6541,1,24,63,2,1,0.756
9,"vonbastiaan_2015_evidence",31,"University students (Swiss)",32,1599924,40,6541,1,25,63,1,1,0.627
9,"vonbastiaan_2015_evidence",31,"University students (Swiss)",32,1599925,40,6541,1,26,63,1,1,0.634
9,"vonbastiaan_2015_evidence",31,"University students (Swiss)",32,1599926,40,6541,1,27,63,1,1,0.722
9,"vonbastiaan_2015_evidence",31,"University students (Swiss)",32,1599927,40,6541,1,28,63,1,1,1.043
9,"vonbastiaan_2015_evidence",31,"University students (Swiss)",32,1599928,40,6541,1,29,63,2,1,1.189
9,"vonbastiaan_2015_evidence",31,"University students (Swiss)",32,1599931,40,6541,1,32,63,2,1,0.797
9,"vonbastiaan_2015_evidence",31,"University students (Swiss)",32,1599932,40,6541,1,33,63,1,1,0.689
9,"vonbastiaan_2015_evidence",31,"University students (Swiss)",32,1599934,40,6541,1,35,63,1,1,0.665
9,"vonbastiaan_2015_evidence",31,"University students (Swiss)",32,1599935,40,6541,1,36,63,1,1,0.729
9,"vonbastiaan_2015_evidence",31,"University students (Swiss)",32,1599937,40,6541,1,38,63,2,1,0.955
9,"vonbastiaan_2015_evidence",31,"University students (Swiss)",32,1599938,40,6541,1,39,63,1,1,0.683
9,"vonbastiaan_2015_evidence",31,"University students (Swiss)",32,1599939,40,6541,1,40,63,2,0,0.627
9,"vonbastiaan_2015_evidence",31,"University students (Swiss)",32,1599940,40,6541,1,41,63,2,1,0.93
9,"vonbastiaan_2015_evidence",31,"University students (Swiss)",32,1599941,40,6541,1,42,63,2,1,0.745
9,"vonbastiaan_2015_evidence",31,"University students (Swiss)",32,1599942,40,6541,1,43,63,1,1,0.675
9,"vonbastiaan_2015_evidence",31,"University students (Swiss)",32,1599943,40,6541,1,44,63,2,1,0.828
9,"vonbastiaan_2015_evidence",31,"University students (Swiss)",32,1599944,40,6541,1,45,63,2,1,0.735
9,"vonbastiaan_2015_evidence",31,"University students (Swiss)",32,1599946,40,6541,1,47,63,1,1,0.924
9,"vonbastiaan_2015_evidence",31,"University students (Swiss)",32,1599947,40,6541,1,48,63,2,1,0.747
9,"vonbastiaan_2015_evidence",31,"University students (Swiss)",32,1599950,40,6541,1,51,63,1,1,0.702
9,"vonbastiaan_2015_evidence",31,"University students (Swiss)",32,1599951,40,6541,1,52,63,2,1,0.935
9,"vonbastiaan_2015_evidence",31,"University students (Swiss)",32,1599953,40,6541,1,54,63,2,1,0.698
9,"vonbastiaan_2015_evidence",31,"University students (Swiss)",32,1599955,40,6541,1,56,63,2,1,0.725
9,"vonbastiaan_2015_evidence",31,"University students (Swiss)",32,1599956,40,6541,1,57,63,2,1,0.719
9,"vonbastiaan_2015_evidence",31,"University students (Swiss)",32,1599957,40,6541,1,58,63,1,1,0.672
9,"vonbastiaan_2015_evidence",31,"University students (Swiss)",32,1599958,40,6541,1,59,63,2,1,0.753
9,"vonbastiaan_2015_evidence",31,"University students (Swiss)",32,1599959,40,6541,1,60,63,1,1,0.747
9,"vonbastiaan_2015_evidence",31,"University students (Swiss)",32,1599961,40,6541,1,62,63,2,1,0.774
9,"vonbastiaan_2015_evidence",31,"University students (Swiss)",32,1599962,40,6541,1,63,63,2,1,0.633
9,"vonbastiaan_2015_evidence",31,"University students (Swiss)",32,1599963,40,6541,1,64,63,1,1,0.672
9,"vonbastiaan_2015_evidence",31,"University students (Swiss)",32,1599964,40,6541,1,65,63,2,1,0.649
9,"vonbastiaan_2015_evidence",31,"University students (Swiss)",32,1599965,40,6541,1,66,63,2,1,0.976
9,"vonbastiaan_2015_evidence",31,"University students (Swiss)",32,1599966,40,6541,1,67,63,2,1,0.656
9,"vonbastiaan_2015_evidence",31,"University students (Swiss)",32,1599967,40,6541,1,68,63,1,1,0.696
9,"vonbastiaan_2015_evidence",31,"University students (Swiss)",32,1599968,40,6541,1,69,63,1,1,0.633
9,"vonbastiaan_2015_evidence",31,"University students (Swiss)",32,1599972,40,6541,1,73,63,2,1,0.667
9,"vonbastiaan_2015_evidence",31,"University students (Swiss)",32,1599975,40,6541,1,76,63,1,1,0.656
9,"vonbastiaan_2015_evidence",31,"University students (Swiss)",32,1599976,40,6541,1,77,63,1,1,0.64
9,"vonbastiaan_2015_evidence",31,"University students (Swiss)",32,1599977,40,6541,1,78,63,1,1,0.696
9,"vonbastiaan_2015_evidence",31,"University students (Swiss)",32,1599978,40,6541,1,79,63,2,1,0.688
9,"vonbastiaan_2015_evidence",31,"University students (Swiss)",32,1599980,40,6541,1,81,63,2,1,0.705
9,"vonbastiaan_2015_evidence",31,"University students (Swiss)",32,1599982,40,6541,1,83,63,1,1,0.724
9,"vonbastiaan_2015_evidence",31,"University students (Swiss)",32,1599984,40,6541,1,85,63,1,1,0.702
9,"vonbastiaan_2015_evidence",31,"University students (Swiss)",32,1599985,40,6541,1,86,63,1,1,0.687
9,"vonbastiaan_2015_evidence",31,"University students (Swiss)",32,1599986,40,6541,1,87,63,1,1,0.728
9,"vonbastiaan_2015_evidence",31,"University students (Swiss)",32,1599988,40,6541,1,89,63,2,1,0.704
9,"vonbastiaan_2015_evidence",31,"University students (Swiss)",32,1599989,40,6541,1,90,63,2,1,0.769
9,"vonbastiaan_2015_evidence",31,"University students (Swiss)",32,1599990,40,6541,1,91,63,1,1,0.58
9,"vonbastiaan_2015_evidence",31,"University students (Swiss)",32,1599992,40,6541,1,93,63,1,1,0.632
9,"vonbastiaan_2015_evidence",31,"University students (Swiss)",32,1599996,40,6541,1,97,63,1,1,0.667
9,"vonbastiaan_2015_evidence",31,"University students (Swiss)",32,1599998,40,6541,1,99,63,2,1,0.945
9,"vonbastiaan_2015_evidence",31,"University students (Swiss)",32,1599999,40,6541,1,100,63,2,1,0.721
9,"vonbastiaan_2015_evidence",31,"University students (Swiss)",32,1600000,40,6541,1,101,63,1,1,0.714
9,"vonbastiaan_2015_evidence",31,"University students (Swiss)",32,1600001,40,6541,1,102,63,1,1,0.731
9,"vonbastiaan_2015_evidence",31,"University students (Swiss)",32,1600002,40,6541,1,103,63,2,1,0.653
9,"vonbastiaan_2015_evidence",31,"University students (Swiss)",32,1600003,40,6541,1,104,63,2,1,0.869
9,"vonbastiaan_2015_evidence",31,"University students (Swiss)",32,1600004,40,6541,1,105,63,2,1,0.675
9,"vonbastiaan_2015_evidence",31,"University students (Swiss)",32,1600006,40,6541,1,107,63,1,1,0.657
9,"vonbastiaan_2015_evidence",31,"University students (Swiss)",32,1600008,40,6541,1,109,63,2,1,0.703
9,"vonbastiaan_2015_evidence",31,"University students (Swiss)",32,1600009,40,6541,1,110,63,1,1,0.792
9,"vonbastiaan_2015_evidence",31,"University students (Swiss)",32,1600011,40,6541,1,112,63,1,1,0.506
9,"vonbastiaan_2015_evidence",31,"University students (Swiss)",32,1600014,40,6541,1,115,63,1,1,0.68
9,"vonbastiaan_2015_evidence",31,"University students (Swiss)",32,1600018,40,6541,1,119,63,2,1,0.625
9,"vonbastiaan_2015_evidence",31,"University students (Swiss)",32,1600019,40,6541,1,120,63,2,1,0.664
9,"vonbastiaan_2015_evidence",31,"University students (Swiss)",32,1600021,40,6541,1,122,63,2,1,0.78
9,"vonbastiaan_2015_evidence",31,"University students (Swiss)",32,1600022,40,6541,1,123,63,1,1,0.696
9,"vonbastiaan_2015_evidence",31,"University students (Swiss)",32,1600023,40,6541,1,124,63,2,1,0.648
9,"vonbastiaan_2015_evidence",31,"University students (Swiss)",32,1600026,40,6541,1,127,63,1,1,0.51
9,"vonbastiaan_2015_evidence",31,"University students (Swiss)",32,1600027,40,6541,1,128,63,1,1,0.682
9,"vonbastiaan_2015_evidence",31,"University students (Swiss)",32,1600028,40,6541,1,129,63,1,1,0.562
9,"vonbastiaan_2015_evidence",31,"University students (Swiss)",32,1600029,40,6541,1,130,63,1,1,0.688
9,"vonbastiaan_2015_evidence",31,"University students (Swiss)",32,1600030,40,6541,1,131,63,2,1,1.049
9,"vonbastiaan_2015_evidence",31,"University students (Swiss)",32,1600033,40,6541,1,134,63,2,1,1.07
9,"vonbastiaan_2015_evidence",31,"University students (Swiss)",32,1600034,40,6541,1,135,63,1,1,0.672
9,"vonbastiaan_2015_evidence",31,"University students (Swiss)",32,1600036,40,6541,1,137,63,2,1,0.663
9,"vonbastiaan_2015_evidence",31,"University students (Swiss)",32,1600039,40,6541,1,140,63,2,1,0.871
9,"vonbastiaan_2015_evidence",31,"University students (Swiss)",32,1600040,40,6541,1,141,63,2,1,0.692
9,"vonbastiaan_2015_evidence",31,"University students (Swiss)",32,1600041,40,6541,1,142,63,1,1,0.949
9,"vonbastiaan_2015_evidence",31,"University students (Swiss)",32,1600043,40,6541,1,144,63,1,1,0.602
9,"vonbastiaan_2015_evidence",31,"University students (Swiss)",32,1600047,40,6542,1,4,63,2,1,1.169
9,"vonbastiaan_2015_evidence",31,"University students (Swiss)",32,1600049,40,6542,1,6,63,2,1,0.775
9,"vonbastiaan_2015_evidence",31,"University students (Swiss)",32,1600050,40,6542,1,7,63,2,1,1.225
9,"vonbastiaan_2015_evidence",31,"University students (Swiss)",32,1600051,40,6542,1,8,63,2,1,0.688
9,"vonbastiaan_2015_evidence",31,"University students (Swiss)",32,1600052,40,6542,1,9,63,1,1,0.672
9,"vonbastiaan_2015_evidence",31,"University students (Swiss)",32,1600053,40,6542,1,10,63,2,0,0.592
9,"vonbastiaan_2015_evidence",31,"University students (Swiss)",32,1600055,40,6542,1,12,63,1,1,0.749
9,"vonbastiaan_2015_evidence",31,"University students (Swiss)",32,1600056,40,6542,1,13,63,1,1,0.647
9,"vonbastiaan_2015_evidence",31,"University students (Swiss)",32,1600058,40,6542,1,15,63,2,1,1.241
9,"vonbastiaan_2015_evidence",31,"University students (Swiss)",32,1600059,40,6542,1,16,63,1,1,0.695
9,"vonbastiaan_2015_evidence",31,"University students (Swiss)",32,1600060,40,6542,1,17,63,2,1,0.824
9,"vonbastiaan_2015_evidence",31,"University students (Swiss)",32,1600061,40,6542,1,18,63,1,1,1.492
9,"vonbastiaan_2015_evidence",31,"University students (Swiss)",32,1600062,40,6542,1,19,63,2,0,0.801
9,"vonbastiaan_2015_evidence",31,"University students (Swiss)",32,1600063,40,6542,1,20,63,1,1,1.213
9,"vonbastiaan_2015_evidence",31,"University students (Swiss)",32,1600064,40,6542,1,21,63,1,1,1.019
9,"vonbastiaan_2015_evidence",31,"University students (Swiss)",32,1600066,40,6542,1,23,63,1,1,0.674
9,"vonbastiaan_2015_evidence",31,"University students (Swiss)",32,1600067,40,6542,1,24,63,2,1,0.931
9,"vonbastiaan_2015_evidence",31,"University students (Swiss)",32,1600068,40,6542,1,25,63,1,1,0.697
9,"vonbastiaan_2015_evidence",31,"University students (Swiss)",32,1600069,40,6542,1,26,63,1,1,0.874
9,"vonbastiaan_2015_evidence",31,"University students (Swiss)",32,1600070,40,6542,1,27,63,1,1,0.727
9,"vonbastiaan_2015_evidence",31,"University students (Swiss)",32,1600071,40,6542,1,28,63,1,1,0.697
9,"vonbastiaan_2015_evidence",31,"University students (Swiss)",32,1600072,40,6542,1,29,63,2,1,0.834
9,"vonbastiaan_2015_evidence",31,"University students (Swiss)",32,1600075,40,6542,1,32,63,2,1,0.705
9,"vonbastiaan_2015_evidence",31,"University students (Swiss)",32,1600076,40,6542,1,33,63,1,1,1.083
9,"vonbastiaan_2015_evidence",31,"University students (Swiss)",32,1600078,40,6542,1,35,63,1,1,0.601
9,"vonbastiaan_2015_evidence",31,"University students (Swiss)",32,1600079,40,6542,1,36,63,1,1,1.016
9,"vonbastiaan_2015_evidence",31,"University students (Swiss)",32,1600081,40,6542,1,38,63,2,1,0.724
9,"vonbastiaan_2015_evidence",31,"University students (Swiss)",32,1600082,40,6542,1,39,63,1,1,0.661
9,"vonbastiaan_2015_evidence",31,"University students (Swiss)",32,1600083,40,6542,1,40,63,2,1,0.693
9,"vonbastiaan_2015_evidence",31,"University students (Swiss)",32,1600084,40,6542,1,41,63,2,1,0.998
9,"vonbastiaan_2015_evidence",31,"University students (Swiss)",32,1600085,40,6542,1,42,63,2,1,0.551
9,"vonbastiaan_2015_evidence",31,"University students (Swiss)",32,1600086,40,6542,1,43,63,1,1,0.532
9,"vonbastiaan_2015_evidence",31,"University students (Swiss)",32,1600087,40,6542,1,44,63,2,1,0.648
9,"vonbastiaan_2015_evidence",31,"University students (Swiss)",32,1600088,40,6542,1,45,63,2,1,1.288
9,"vonbastiaan_2015_evidence",31,"University students (Swiss)",32,1600090,40,6542,1,47,63,1,1,1.093
9,"vonbastiaan_2015_evidence",31,"University students (Swiss)",32,1600091,40,6542,1,48,63,2,1,0.775
